WID,Condition,Trial,TrialBase,Class,ContainmentType,ContainmentLevel,TrialNum,MotionDirection,Response,RT,Goal,Switched,RawResponse,WasBad
A13JDX06ZXN4KJ:3UNH76FOCTPOUK7Q7CPQNPKNG1KMY6,2,regular_8,regular_8,regular,NA,NA,8,Fwd,R,0.572,R,True,G,False
A13JDX06ZXN4KJ:3UNH76FOCTPOUK7Q7CPQNPKNG1KMY6,2,complex_1_b,complex_1,contained,complex,b,1,Rev,G,0.333,G,False,G,False
A13JDX06ZXN4KJ:3UNH76FOCTPOUK7Q7CPQNPKNG1KMY6,2,porous_1_a,porous_1,contained,porous,a,1,Rev,R,0.021,G,True,G,False
A13JDX06ZXN4KJ:3UNH76FOCTPOUK7Q7CPQNPKNG1KMY6,2,regular_2,regular_2,regular,NA,NA,2,Fwd,R,0.662,G,True,G,False
A13JDX06ZXN4KJ:3UNH76FOCTPOUK7Q7CPQNPKNG1KMY6,2,regular_9,regular_9,regular,NA,NA,9,Fwd,G,0.132,R,True,R,False
A13JDX06ZXN4KJ:3UNH76FOCTPOUK7Q7CPQNPKNG1KMY6,2,size_2_c,size_2,contained,size,c,2,Fwd,G,0.792,G,False,G,False
A13JDX06ZXN4KJ:3UNH76FOCTPOUK7Q7CPQNPKNG1KMY6,2,porous_5_a,porous_5,contained,porous,a,5,Fwd,G,0.533,G,True,R,False
A13JDX06ZXN4KJ:3UNH76FOCTPOUK7Q7CPQNPKNG1KMY6,2,regular_0,regular_0,regular,NA,NA,0,Fwd,R,0.951,R,True,G,False
A13JDX06ZXN4KJ:3UNH76FOCTPOUK7Q7CPQNPKNG1KMY6,2,regular_12,regular_12,regular,NA,NA,12,Fwd,R,0.451,G,True,G,False
A13JDX06ZXN4KJ:3UNH76FOCTPOUK7Q7CPQNPKNG1KMY6,2,regular_10,regular_10,regular,NA,NA,10,None,R,0.732,R,True,G,False
A13JDX06ZXN4KJ:3UNH76FOCTPOUK7Q7CPQNPKNG1KMY6,2,stopper_2_a,stopper_2,contained,stopper,a,2,Fwd,G,0.36,G,False,G,False
A13JDX06ZXN4KJ:3UNH76FOCTPOUK7Q7CPQNPKNG1KMY6,2,porous_4_a,porous_4,contained,porous,a,4,Rev,G,0.227,G,True,R,False
A13JDX06ZXN4KJ:3UNH76FOCTPOUK7Q7CPQNPKNG1KMY6,2,porous_6_a,porous_6,contained,porous,a,6,None,G,0.244,G,False,G,False
A13JDX06ZXN4KJ:3UNH76FOCTPOUK7Q7CPQNPKNG1KMY6,2,regular_18,regular_18,regular,NA,NA,18,Fwd,G,0.577,G,False,G,False
A13JDX06ZXN4KJ:3UNH76FOCTPOUK7Q7CPQNPKNG1KMY6,2,regular_4,regular_4,regular,NA,NA,4,None,G,0.506,R,True,R,False
A13JDX06ZXN4KJ:3UNH76FOCTPOUK7Q7CPQNPKNG1KMY6,2,complex_3_b,complex_3,contained,complex,b,3,None,R,0.439,G,True,G,False
A13JDX06ZXN4KJ:3UNH76FOCTPOUK7Q7CPQNPKNG1KMY6,2,regular_13,regular_13,regular,NA,NA,13,None,R,0.93,G,True,G,False
A13JDX06ZXN4KJ:3UNH76FOCTPOUK7Q7CPQNPKNG1KMY6,2,complex_4_b,complex_4,contained,complex,b,4,Rev,G,0.344,G,True,R,False
A13JDX06ZXN4KJ:3UNH76FOCTPOUK7Q7CPQNPKNG1KMY6,2,regular_21,regular_21,regular,NA,NA,21,Fwd,R,0.909,R,True,G,False
A13JDX06ZXN4KJ:3UNH76FOCTPOUK7Q7CPQNPKNG1KMY6,2,porous_2_a,porous_2,contained,porous,a,2,Fwd,G,0.227,G,False,G,False
A13JDX06ZXN4KJ:3UNH76FOCTPOUK7Q7CPQNPKNG1KMY6,2,stopper_3_a,stopper_3,contained,stopper,a,3,None,G,0.204,G,False,G,False
A13JDX06ZXN4KJ:3UNH76FOCTPOUK7Q7CPQNPKNG1KMY6,2,regular_1,regular_1,regular,NA,NA,1,None,G,0.375,G,True,R,False
A13JDX06ZXN4KJ:3UNH76FOCTPOUK7Q7CPQNPKNG1KMY6,2,regular_14,regular_14,regular,NA,NA,14,Fwd,G,0.256,G,True,R,False
A13JDX06ZXN4KJ:3UNH76FOCTPOUK7Q7CPQNPKNG1KMY6,2,regular_23,regular_23,regular,NA,NA,23,Fwd,R,0.302,R,False,R,False
A13JDX06ZXN4KJ:3UNH76FOCTPOUK7Q7CPQNPKNG1KMY6,2,size_6_c,size_6,contained,size,c,6,None,G,0.408,G,True,R,False
A13JDX06ZXN4KJ:3UNH76FOCTPOUK7Q7CPQNPKNG1KMY6,2,complex_6_b,complex_6,contained,complex,b,6,None,G,0.41,G,False,G,False
A13JDX06ZXN4KJ:3UNH76FOCTPOUK7Q7CPQNPKNG1KMY6,2,porous_3_a,porous_3,contained,porous,a,3,None,G,0.301,G,False,G,False
A13JDX06ZXN4KJ:3UNH76FOCTPOUK7Q7CPQNPKNG1KMY6,2,regular_3,regular_3,regular,NA,NA,3,Fwd,R,0.309,R,True,G,False
A13JDX06ZXN4KJ:3UNH76FOCTPOUK7Q7CPQNPKNG1KMY6,2,complex_5_b,complex_5,contained,complex,b,5,Fwd,G,0.224,G,True,R,False
A13JDX06ZXN4KJ:3UNH76FOCTPOUK7Q7CPQNPKNG1KMY6,2,regular_16,regular_16,regular,NA,NA,16,None,R,0.323,G,False,R,False
A13JDX06ZXN4KJ:3UNH76FOCTPOUK7Q7CPQNPKNG1KMY6,2,regular_6,regular_6,regular,NA,NA,6,Fwd,R,0.223,G,False,R,False
A13JDX06ZXN4KJ:3UNH76FOCTPOUK7Q7CPQNPKNG1KMY6,2,size_5_c,size_5,contained,size,c,5,Fwd,R,0.176,G,False,R,False
A13JDX06ZXN4KJ:3UNH76FOCTPOUK7Q7CPQNPKNG1KMY6,2,stopper_4_a,stopper_4,contained,stopper,a,4,Rev,G,0.651,G,True,R,False
A13JDX06ZXN4KJ:3UNH76FOCTPOUK7Q7CPQNPKNG1KMY6,2,size_4_c,size_4,contained,size,c,4,Rev,G,0.659,G,True,R,False
A13JDX06ZXN4KJ:3UNH76FOCTPOUK7Q7CPQNPKNG1KMY6,2,regular_5,regular_5,regular,NA,NA,5,Fwd,G,0.538,R,True,R,False
A13JDX06ZXN4KJ:3UNH76FOCTPOUK7Q7CPQNPKNG1KMY6,2,regular_19,regular_19,regular,NA,NA,19,None,R,0.852,G,True,G,False
A13JDX06ZXN4KJ:3UNH76FOCTPOUK7Q7CPQNPKNG1KMY6,2,regular_22,regular_22,regular,NA,NA,22,None,G,0.475,G,False,G,False
A13JDX06ZXN4KJ:3UNH76FOCTPOUK7Q7CPQNPKNG1KMY6,2,size_3_c,size_3,contained,size,c,3,None,G,0.3,G,True,R,False
A13JDX06ZXN4KJ:3UNH76FOCTPOUK7Q7CPQNPKNG1KMY6,2,regular_11,regular_11,regular,NA,NA,11,Fwd,R,0.153,R,False,R,False
A13JDX06ZXN4KJ:3UNH76FOCTPOUK7Q7CPQNPKNG1KMY6,2,stopper_5_a,stopper_5,contained,stopper,a,5,Fwd,G,0.133,G,False,G,False
A13JDX06ZXN4KJ:3UNH76FOCTPOUK7Q7CPQNPKNG1KMY6,2,complex_2_b,complex_2,contained,complex,b,2,Fwd,G,0.102,G,True,R,False
A13JDX06ZXN4KJ:3UNH76FOCTPOUK7Q7CPQNPKNG1KMY6,2,regular_17,regular_17,regular,NA,NA,17,Fwd,G,0.171,G,False,G,False
A13JDX06ZXN4KJ:3UNH76FOCTPOUK7Q7CPQNPKNG1KMY6,2,stopper_6_a,stopper_6,contained,stopper,a,6,None,G,0.181,G,False,G,False
A13JDX06ZXN4KJ:3UNH76FOCTPOUK7Q7CPQNPKNG1KMY6,2,regular_20,regular_20,regular,NA,NA,20,Fwd,G,0.055,G,False,G,False
A13JDX06ZXN4KJ:3UNH76FOCTPOUK7Q7CPQNPKNG1KMY6,2,regular_15,regular_15,regular,NA,NA,15,Fwd,G,0.3,G,True,R,False
A13JDX06ZXN4KJ:3UNH76FOCTPOUK7Q7CPQNPKNG1KMY6,2,stopper_1_a,stopper_1,contained,stopper,a,1,Rev,G,0.244,G,True,R,False
A13JDX06ZXN4KJ:3UNH76FOCTPOUK7Q7CPQNPKNG1KMY6,2,regular_7,regular_7,regular,NA,NA,7,None,R,0.607,G,True,G,False
A13JDX06ZXN4KJ:3UNH76FOCTPOUK7Q7CPQNPKNG1KMY6,2,size_1_c,size_1,contained,size,c,1,Rev,R,0.379,G,True,G,False
A154X03NKVZZL1:3E47SOBEYRGPVYGUQ599Y5LNW4IICE,0,size_6_c,size_6,contained,size,c,6,Rev,R,0.676,G,True,G,False
A154X03NKVZZL1:3E47SOBEYRGPVYGUQ599Y5LNW4IICE,0,regular_13,regular_13,regular,NA,NA,13,Fwd,G,0.639,G,False,G,False
A154X03NKVZZL1:3E47SOBEYRGPVYGUQ599Y5LNW4IICE,0,stopper_2_a,stopper_2,contained,stopper,a,2,None,R,0.601,G,False,R,False
A154X03NKVZZL1:3E47SOBEYRGPVYGUQ599Y5LNW4IICE,0,complex_5_b,complex_5,contained,complex,b,5,None,R,-1.0,G,True,,False
A154X03NKVZZL1:3E47SOBEYRGPVYGUQ599Y5LNW4IICE,0,stopper_5_a,stopper_5,contained,stopper,a,5,None,G,0.584,G,False,G,False
A154X03NKVZZL1:3E47SOBEYRGPVYGUQ599Y5LNW4IICE,0,size_2_c,size_2,contained,size,c,2,None,G,0.786,G,False,G,False
A154X03NKVZZL1:3E47SOBEYRGPVYGUQ599Y5LNW4IICE,0,size_4_c,size_4,contained,size,c,4,Fwd,G,0.555,G,False,G,False
A154X03NKVZZL1:3E47SOBEYRGPVYGUQ599Y5LNW4IICE,0,stopper_6_a,stopper_6,contained,stopper,a,6,Rev,G,0.523,G,True,R,False
A154X03NKVZZL1:3E47SOBEYRGPVYGUQ599Y5LNW4IICE,0,regular_4,regular_4,regular,NA,NA,4,Fwd,G,0.437,R,False,G,False
A154X03NKVZZL1:3E47SOBEYRGPVYGUQ599Y5LNW4IICE,0,regular_9,regular_9,regular,NA,NA,9,None,G,0.802,R,False,G,False
A154X03NKVZZL1:3E47SOBEYRGPVYGUQ599Y5LNW4IICE,0,regular_21,regular_21,regular,NA,NA,21,None,G,0.55,R,False,G,False
A154X03NKVZZL1:3E47SOBEYRGPVYGUQ599Y5LNW4IICE,0,regular_18,regular_18,regular,NA,NA,18,None,R,0.47,G,False,R,False
A154X03NKVZZL1:3E47SOBEYRGPVYGUQ599Y5LNW4IICE,0,complex_6_b,complex_6,contained,complex,b,6,Rev,G,0.405,G,False,G,False
A154X03NKVZZL1:3E47SOBEYRGPVYGUQ599Y5LNW4IICE,0,porous_4_a,porous_4,contained,porous,a,4,Fwd,G,0.276,G,False,G,False
A154X03NKVZZL1:3E47SOBEYRGPVYGUQ599Y5LNW4IICE,0,complex_1_b,complex_1,contained,complex,b,1,Fwd,G,0.505,G,True,R,False
A154X03NKVZZL1:3E47SOBEYRGPVYGUQ599Y5LNW4IICE,0,regular_3,regular_3,regular,NA,NA,3,None,R,0.582,R,True,G,False
A154X03NKVZZL1:3E47SOBEYRGPVYGUQ599Y5LNW4IICE,0,regular_15,regular_15,regular,NA,NA,15,None,R,0.593,G,True,G,False
A154X03NKVZZL1:3E47SOBEYRGPVYGUQ599Y5LNW4IICE,0,regular_10,regular_10,regular,NA,NA,10,Fwd,G,0.649,R,True,R,False
A154X03NKVZZL1:3E47SOBEYRGPVYGUQ599Y5LNW4IICE,0,regular_0,regular_0,regular,NA,NA,0,None,G,0.703,R,True,R,False
A154X03NKVZZL1:3E47SOBEYRGPVYGUQ599Y5LNW4IICE,0,stopper_4_a,stopper_4,contained,stopper,a,4,Fwd,G,0.471,G,False,G,False
A154X03NKVZZL1:3E47SOBEYRGPVYGUQ599Y5LNW4IICE,0,regular_19,regular_19,regular,NA,NA,19,Fwd,G,0.937,G,True,R,False
A154X03NKVZZL1:3E47SOBEYRGPVYGUQ599Y5LNW4IICE,0,porous_5_a,porous_5,contained,porous,a,5,None,G,0.737,G,True,R,False
A154X03NKVZZL1:3E47SOBEYRGPVYGUQ599Y5LNW4IICE,0,porous_1_a,porous_1,contained,porous,a,1,Fwd,G,0.754,G,True,R,False
A154X03NKVZZL1:3E47SOBEYRGPVYGUQ599Y5LNW4IICE,0,regular_17,regular_17,regular,NA,NA,17,Fwd,G,0.379,G,True,R,False
A154X03NKVZZL1:3E47SOBEYRGPVYGUQ599Y5LNW4IICE,0,size_3_c,size_3,contained,size,c,3,Rev,G,0.72,G,True,R,False
A154X03NKVZZL1:3E47SOBEYRGPVYGUQ599Y5LNW4IICE,0,complex_3_b,complex_3,contained,complex,b,3,Rev,G,1.109,G,True,R,False
A154X03NKVZZL1:3E47SOBEYRGPVYGUQ599Y5LNW4IICE,0,regular_20,regular_20,regular,NA,NA,20,Fwd,G,0.584,G,True,R,False
A154X03NKVZZL1:3E47SOBEYRGPVYGUQ599Y5LNW4IICE,0,regular_1,regular_1,regular,NA,NA,1,Fwd,R,0.495,G,False,R,False
A154X03NKVZZL1:3E47SOBEYRGPVYGUQ599Y5LNW4IICE,0,porous_3_a,porous_3,contained,porous,a,3,Rev,G,0.724,G,True,R,False
A154X03NKVZZL1:3E47SOBEYRGPVYGUQ599Y5LNW4IICE,0,porous_2_a,porous_2,contained,porous,a,2,None,G,0.642,G,False,G,False
A154X03NKVZZL1:3E47SOBEYRGPVYGUQ599Y5LNW4IICE,0,regular_11,regular_11,regular,NA,NA,11,Fwd,R,0.604,R,False,R,False
A154X03NKVZZL1:3E47SOBEYRGPVYGUQ599Y5LNW4IICE,0,size_1_c,size_1,contained,size,c,1,Fwd,G,0.479,G,True,R,False
A154X03NKVZZL1:3E47SOBEYRGPVYGUQ599Y5LNW4IICE,0,porous_6_a,porous_6,contained,porous,a,6,Rev,G,0.517,G,True,R,False
A154X03NKVZZL1:3E47SOBEYRGPVYGUQ599Y5LNW4IICE,0,regular_6,regular_6,regular,NA,NA,6,None,R,1.093,G,True,G,False
A154X03NKVZZL1:3E47SOBEYRGPVYGUQ599Y5LNW4IICE,0,regular_8,regular_8,regular,NA,NA,8,Fwd,G,0.595,R,False,G,False
A154X03NKVZZL1:3E47SOBEYRGPVYGUQ599Y5LNW4IICE,0,stopper_3_a,stopper_3,contained,stopper,a,3,Rev,G,0.317,G,False,G,False
A154X03NKVZZL1:3E47SOBEYRGPVYGUQ599Y5LNW4IICE,0,size_5_c,size_5,contained,size,c,5,None,G,0.702,G,False,G,False
A154X03NKVZZL1:3E47SOBEYRGPVYGUQ599Y5LNW4IICE,0,stopper_1_a,stopper_1,contained,stopper,a,1,Fwd,G,0.429,G,True,R,False
A154X03NKVZZL1:3E47SOBEYRGPVYGUQ599Y5LNW4IICE,0,complex_2_b,complex_2,contained,complex,b,2,None,R,0.905,G,False,R,False
A154X03NKVZZL1:3E47SOBEYRGPVYGUQ599Y5LNW4IICE,0,regular_12,regular_12,regular,NA,NA,12,None,G,1.073,G,False,G,False
A154X03NKVZZL1:3E47SOBEYRGPVYGUQ599Y5LNW4IICE,0,regular_14,regular_14,regular,NA,NA,14,Fwd,G,0.602,G,True,R,False
A154X03NKVZZL1:3E47SOBEYRGPVYGUQ599Y5LNW4IICE,0,regular_7,regular_7,regular,NA,NA,7,Fwd,R,0.322,G,True,G,False
A154X03NKVZZL1:3E47SOBEYRGPVYGUQ599Y5LNW4IICE,0,regular_2,regular_2,regular,NA,NA,2,Fwd,R,0.554,G,False,R,False
A154X03NKVZZL1:3E47SOBEYRGPVYGUQ599Y5LNW4IICE,0,regular_5,regular_5,regular,NA,NA,5,Fwd,R,0.105,R,False,R,False
A154X03NKVZZL1:3E47SOBEYRGPVYGUQ599Y5LNW4IICE,0,regular_16,regular_16,regular,NA,NA,16,Fwd,R,0.308,G,True,G,False
A154X03NKVZZL1:3E47SOBEYRGPVYGUQ599Y5LNW4IICE,0,regular_22,regular_22,regular,NA,NA,22,Fwd,R,0.482,G,False,R,False
A154X03NKVZZL1:3E47SOBEYRGPVYGUQ599Y5LNW4IICE,0,regular_23,regular_23,regular,NA,NA,23,Fwd,G,0.472,R,False,G,False
A154X03NKVZZL1:3E47SOBEYRGPVYGUQ599Y5LNW4IICE,0,complex_4_b,complex_4,contained,complex,b,4,Fwd,G,0.566,G,False,G,False
A15781PHGW377Y:3X73LLYYQ2Y8Q7219D02E4EKVV6HNR,0,regular_2,regular_2,regular,NA,NA,2,Fwd,G,1.289,G,True,R,False
A15781PHGW377Y:3X73LLYYQ2Y8Q7219D02E4EKVV6HNR,0,regular_11,regular_11,regular,NA,NA,11,Fwd,R,1.327,R,False,R,False
A15781PHGW377Y:3X73LLYYQ2Y8Q7219D02E4EKVV6HNR,0,stopper_4_a,stopper_4,contained,stopper,a,4,Fwd,G,0.516,G,True,R,False
A15781PHGW377Y:3X73LLYYQ2Y8Q7219D02E4EKVV6HNR,0,complex_2_b,complex_2,contained,complex,b,2,None,G,0.788,G,True,R,False
A15781PHGW377Y:3X73LLYYQ2Y8Q7219D02E4EKVV6HNR,0,regular_10,regular_10,regular,NA,NA,10,Fwd,R,0.605,R,False,R,False
A15781PHGW377Y:3X73LLYYQ2Y8Q7219D02E4EKVV6HNR,0,stopper_5_a,stopper_5,contained,stopper,a,5,None,G,0.439,G,False,G,False
A15781PHGW377Y:3X73LLYYQ2Y8Q7219D02E4EKVV6HNR,0,stopper_1_a,stopper_1,contained,stopper,a,1,Fwd,G,0.136,G,False,G,False
A15781PHGW377Y:3X73LLYYQ2Y8Q7219D02E4EKVV6HNR,0,regular_9,regular_9,regular,NA,NA,9,None,R,0.451,R,False,R,False
A15781PHGW377Y:3X73LLYYQ2Y8Q7219D02E4EKVV6HNR,0,size_3_c,size_3,contained,size,c,3,Rev,G,0.461,G,False,G,False
A15781PHGW377Y:3X73LLYYQ2Y8Q7219D02E4EKVV6HNR,0,porous_4_a,porous_4,contained,porous,a,4,Fwd,G,0.262,G,True,R,False
A15781PHGW377Y:3X73LLYYQ2Y8Q7219D02E4EKVV6HNR,0,porous_5_a,porous_5,contained,porous,a,5,None,G,0.292,G,True,R,False
A15781PHGW377Y:3X73LLYYQ2Y8Q7219D02E4EKVV6HNR,0,regular_3,regular_3,regular,NA,NA,3,None,R,0.494,R,False,R,False
A15781PHGW377Y:3X73LLYYQ2Y8Q7219D02E4EKVV6HNR,0,size_4_c,size_4,contained,size,c,4,Fwd,G,0.472,G,True,R,False
A15781PHGW377Y:3X73LLYYQ2Y8Q7219D02E4EKVV6HNR,0,complex_5_b,complex_5,contained,complex,b,5,None,G,0.928,G,False,G,False
A15781PHGW377Y:3X73LLYYQ2Y8Q7219D02E4EKVV6HNR,0,regular_15,regular_15,regular,NA,NA,15,None,G,0.734,G,False,G,False
A15781PHGW377Y:3X73LLYYQ2Y8Q7219D02E4EKVV6HNR,0,stopper_3_a,stopper_3,contained,stopper,a,3,Rev,G,0.683,G,True,R,False
A15781PHGW377Y:3X73LLYYQ2Y8Q7219D02E4EKVV6HNR,0,regular_14,regular_14,regular,NA,NA,14,Fwd,R,1.088,G,True,G,False
A15781PHGW377Y:3X73LLYYQ2Y8Q7219D02E4EKVV6HNR,0,regular_21,regular_21,regular,NA,NA,21,None,R,0.839,R,False,R,False
A15781PHGW377Y:3X73LLYYQ2Y8Q7219D02E4EKVV6HNR,0,stopper_2_a,stopper_2,contained,stopper,a,2,None,G,0.984,G,True,R,False
A15781PHGW377Y:3X73LLYYQ2Y8Q7219D02E4EKVV6HNR,0,regular_1,regular_1,regular,NA,NA,1,Fwd,G,0.471,G,True,R,False
A15781PHGW377Y:3X73LLYYQ2Y8Q7219D02E4EKVV6HNR,0,regular_12,regular_12,regular,NA,NA,12,None,G,0.818,G,True,R,False
A15781PHGW377Y:3X73LLYYQ2Y8Q7219D02E4EKVV6HNR,0,size_2_c,size_2,contained,size,c,2,None,R,0.648,G,False,R,False
A15781PHGW377Y:3X73LLYYQ2Y8Q7219D02E4EKVV6HNR,0,regular_4,regular_4,regular,NA,NA,4,Fwd,R,0.43,R,False,R,False
A15781PHGW377Y:3X73LLYYQ2Y8Q7219D02E4EKVV6HNR,0,size_5_c,size_5,contained,size,c,5,None,G,0.63,G,True,R,False
A15781PHGW377Y:3X73LLYYQ2Y8Q7219D02E4EKVV6HNR,0,regular_19,regular_19,regular,NA,NA,19,Fwd,G,1.058,G,False,G,False
A15781PHGW377Y:3X73LLYYQ2Y8Q7219D02E4EKVV6HNR,0,porous_1_a,porous_1,contained,porous,a,1,Fwd,G,0.338,G,True,R,False
A15781PHGW377Y:3X73LLYYQ2Y8Q7219D02E4EKVV6HNR,0,complex_6_b,complex_6,contained,complex,b,6,Rev,R,1.386,G,False,R,False
A15781PHGW377Y:3X73LLYYQ2Y8Q7219D02E4EKVV6HNR,0,size_1_c,size_1,contained,size,c,1,Fwd,R,0.215,G,False,R,False
A15781PHGW377Y:3X73LLYYQ2Y8Q7219D02E4EKVV6HNR,0,regular_20,regular_20,regular,NA,NA,20,Fwd,R,1.694,G,False,R,False
A15781PHGW377Y:3X73LLYYQ2Y8Q7219D02E4EKVV6HNR,0,complex_1_b,complex_1,contained,complex,b,1,Fwd,G,2.323,G,False,G,False
A15781PHGW377Y:3X73LLYYQ2Y8Q7219D02E4EKVV6HNR,0,complex_3_b,complex_3,contained,complex,b,3,Rev,G,0.597,G,True,R,False
A15781PHGW377Y:3X73LLYYQ2Y8Q7219D02E4EKVV6HNR,0,complex_4_b,complex_4,contained,complex,b,4,Fwd,G,0.797,G,True,R,False
A15781PHGW377Y:3X73LLYYQ2Y8Q7219D02E4EKVV6HNR,0,size_6_c,size_6,contained,size,c,6,Rev,G,0.397,G,False,G,False
A15781PHGW377Y:3X73LLYYQ2Y8Q7219D02E4EKVV6HNR,0,porous_3_a,porous_3,contained,porous,a,3,Rev,G,0.349,G,False,G,False
A15781PHGW377Y:3X73LLYYQ2Y8Q7219D02E4EKVV6HNR,0,regular_6,regular_6,regular,NA,NA,6,None,G,0.594,G,False,G,False
A15781PHGW377Y:3X73LLYYQ2Y8Q7219D02E4EKVV6HNR,0,regular_8,regular_8,regular,NA,NA,8,Fwd,R,1.125,R,False,R,False
A15781PHGW377Y:3X73LLYYQ2Y8Q7219D02E4EKVV6HNR,0,regular_16,regular_16,regular,NA,NA,16,Fwd,G,0.932,G,False,G,False
A15781PHGW377Y:3X73LLYYQ2Y8Q7219D02E4EKVV6HNR,0,regular_7,regular_7,regular,NA,NA,7,Fwd,G,1.083,G,False,G,False
A15781PHGW377Y:3X73LLYYQ2Y8Q7219D02E4EKVV6HNR,0,regular_17,regular_17,regular,NA,NA,17,Fwd,G,0.956,G,False,G,False
A15781PHGW377Y:3X73LLYYQ2Y8Q7219D02E4EKVV6HNR,0,porous_2_a,porous_2,contained,porous,a,2,None,G,0.426,G,True,R,False
A15781PHGW377Y:3X73LLYYQ2Y8Q7219D02E4EKVV6HNR,0,regular_22,regular_22,regular,NA,NA,22,Fwd,R,0.525,G,False,R,False
A15781PHGW377Y:3X73LLYYQ2Y8Q7219D02E4EKVV6HNR,0,regular_23,regular_23,regular,NA,NA,23,Fwd,G,1.674,R,False,G,False
A15781PHGW377Y:3X73LLYYQ2Y8Q7219D02E4EKVV6HNR,0,stopper_6_a,stopper_6,contained,stopper,a,6,Rev,G,1.041,G,False,G,False
A15781PHGW377Y:3X73LLYYQ2Y8Q7219D02E4EKVV6HNR,0,porous_6_a,porous_6,contained,porous,a,6,Rev,G,0.414,G,False,G,False
A15781PHGW377Y:3X73LLYYQ2Y8Q7219D02E4EKVV6HNR,0,regular_5,regular_5,regular,NA,NA,5,Fwd,R,1.15,R,False,R,False
A15781PHGW377Y:3X73LLYYQ2Y8Q7219D02E4EKVV6HNR,0,regular_0,regular_0,regular,NA,NA,0,None,R,1.656,R,True,G,False
A15781PHGW377Y:3X73LLYYQ2Y8Q7219D02E4EKVV6HNR,0,regular_18,regular_18,regular,NA,NA,18,None,G,1.392,G,True,R,False
A15781PHGW377Y:3X73LLYYQ2Y8Q7219D02E4EKVV6HNR,0,regular_13,regular_13,regular,NA,NA,13,Fwd,R,2.467,G,True,G,False
A19134KP9PBNXT:3EQHHY4HQTCQ0M1KL7MYZN2XPA45G1,1,complex_5_b,complex_5,contained,complex,b,5,Rev,G,0.46,G,False,G,False
A19134KP9PBNXT:3EQHHY4HQTCQ0M1KL7MYZN2XPA45G1,1,size_6_c,size_6,contained,size,c,6,Fwd,R,0.196,G,True,G,False
A19134KP9PBNXT:3EQHHY4HQTCQ0M1KL7MYZN2XPA45G1,1,complex_2_b,complex_2,contained,complex,b,2,Rev,G,0.927,G,True,R,False
A19134KP9PBNXT:3EQHHY4HQTCQ0M1KL7MYZN2XPA45G1,1,stopper_3_a,stopper_3,contained,stopper,a,3,Fwd,G,0.2,G,False,G,False
A19134KP9PBNXT:3EQHHY4HQTCQ0M1KL7MYZN2XPA45G1,1,porous_1_a,porous_1,contained,porous,a,1,None,R,0.196,G,True,G,False
A19134KP9PBNXT:3EQHHY4HQTCQ0M1KL7MYZN2XPA45G1,1,complex_3_b,complex_3,contained,complex,b,3,Fwd,G,0.944,G,True,R,False
A19134KP9PBNXT:3EQHHY4HQTCQ0M1KL7MYZN2XPA45G1,1,regular_15,regular_15,regular,NA,NA,15,Fwd,G,0.815,G,True,R,False
A19134KP9PBNXT:3EQHHY4HQTCQ0M1KL7MYZN2XPA45G1,1,regular_14,regular_14,regular,NA,NA,14,None,G,0.246,G,False,G,False
A19134KP9PBNXT:3EQHHY4HQTCQ0M1KL7MYZN2XPA45G1,1,stopper_1_a,stopper_1,contained,stopper,a,1,None,R,0.089,G,True,G,False
A19134KP9PBNXT:3EQHHY4HQTCQ0M1KL7MYZN2XPA45G1,1,regular_12,regular_12,regular,NA,NA,12,Fwd,R,0.56,G,False,R,False
A19134KP9PBNXT:3EQHHY4HQTCQ0M1KL7MYZN2XPA45G1,1,porous_6_a,porous_6,contained,porous,a,6,Fwd,R,1.124,G,True,G,False
A19134KP9PBNXT:3EQHHY4HQTCQ0M1KL7MYZN2XPA45G1,1,regular_5,regular_5,regular,NA,NA,5,None,G,0.832,R,True,R,False
A19134KP9PBNXT:3EQHHY4HQTCQ0M1KL7MYZN2XPA45G1,1,regular_10,regular_10,regular,NA,NA,10,Fwd,G,0.702,R,False,G,False
A19134KP9PBNXT:3EQHHY4HQTCQ0M1KL7MYZN2XPA45G1,1,stopper_4_a,stopper_4,contained,stopper,a,4,None,R,0.947,G,False,R,False
A19134KP9PBNXT:3EQHHY4HQTCQ0M1KL7MYZN2XPA45G1,1,size_4_c,size_4,contained,size,c,4,None,G,0.508,G,True,R,False
A19134KP9PBNXT:3EQHHY4HQTCQ0M1KL7MYZN2XPA45G1,1,regular_23,regular_23,regular,NA,NA,23,None,G,0.625,R,False,G,False
A19134KP9PBNXT:3EQHHY4HQTCQ0M1KL7MYZN2XPA45G1,1,complex_6_b,complex_6,contained,complex,b,6,Fwd,G,0.951,G,False,G,False
A19134KP9PBNXT:3EQHHY4HQTCQ0M1KL7MYZN2XPA45G1,1,regular_19,regular_19,regular,NA,NA,19,Fwd,R,0.488,G,False,R,False
A19134KP9PBNXT:3EQHHY4HQTCQ0M1KL7MYZN2XPA45G1,1,regular_1,regular_1,regular,NA,NA,1,Fwd,R,0.679,G,True,G,False
A19134KP9PBNXT:3EQHHY4HQTCQ0M1KL7MYZN2XPA45G1,1,regular_18,regular_18,regular,NA,NA,18,Fwd,R,0.977,G,True,G,False
A19134KP9PBNXT:3EQHHY4HQTCQ0M1KL7MYZN2XPA45G1,1,regular_0,regular_0,regular,NA,NA,0,Fwd,G,0.734,R,True,R,False
A19134KP9PBNXT:3EQHHY4HQTCQ0M1KL7MYZN2XPA45G1,1,regular_11,regular_11,regular,NA,NA,11,None,R,1.122,R,True,G,False
A19134KP9PBNXT:3EQHHY4HQTCQ0M1KL7MYZN2XPA45G1,1,stopper_2_a,stopper_2,contained,stopper,a,2,Rev,R,0.048,G,False,R,False
A19134KP9PBNXT:3EQHHY4HQTCQ0M1KL7MYZN2XPA45G1,1,porous_3_a,porous_3,contained,porous,a,3,Fwd,G,0.165,G,False,G,False
A19134KP9PBNXT:3EQHHY4HQTCQ0M1KL7MYZN2XPA45G1,1,porous_4_a,porous_4,contained,porous,a,4,None,G,0.371,G,True,R,False
A19134KP9PBNXT:3EQHHY4HQTCQ0M1KL7MYZN2XPA45G1,1,size_1_c,size_1,contained,size,c,1,None,G,0.44,G,True,R,False
A19134KP9PBNXT:3EQHHY4HQTCQ0M1KL7MYZN2XPA45G1,1,complex_1_b,complex_1,contained,complex,b,1,None,G,0.328,G,True,R,False
A19134KP9PBNXT:3EQHHY4HQTCQ0M1KL7MYZN2XPA45G1,1,regular_20,regular_20,regular,NA,NA,20,None,G,0.573,G,False,G,False
A19134KP9PBNXT:3EQHHY4HQTCQ0M1KL7MYZN2XPA45G1,1,stopper_6_a,stopper_6,contained,stopper,a,6,Fwd,G,0.536,G,False,G,False
A19134KP9PBNXT:3EQHHY4HQTCQ0M1KL7MYZN2XPA45G1,1,complex_4_b,complex_4,contained,complex,b,4,None,R,0.328,G,True,G,False
A19134KP9PBNXT:3EQHHY4HQTCQ0M1KL7MYZN2XPA45G1,1,size_5_c,size_5,contained,size,c,5,Rev,G,0.521,G,True,R,False
A19134KP9PBNXT:3EQHHY4HQTCQ0M1KL7MYZN2XPA45G1,1,size_2_c,size_2,contained,size,c,2,Rev,G,0.39,G,False,G,False
A19134KP9PBNXT:3EQHHY4HQTCQ0M1KL7MYZN2XPA45G1,1,regular_16,regular_16,regular,NA,NA,16,Fwd,G,0.425,G,True,R,False
A19134KP9PBNXT:3EQHHY4HQTCQ0M1KL7MYZN2XPA45G1,1,regular_4,regular_4,regular,NA,NA,4,Fwd,R,0.223,R,False,R,False
A19134KP9PBNXT:3EQHHY4HQTCQ0M1KL7MYZN2XPA45G1,1,porous_2_a,porous_2,contained,porous,a,2,Rev,G,0.163,G,False,G,False
A19134KP9PBNXT:3EQHHY4HQTCQ0M1KL7MYZN2XPA45G1,1,size_3_c,size_3,contained,size,c,3,Fwd,G,0.093,G,True,R,False
A19134KP9PBNXT:3EQHHY4HQTCQ0M1KL7MYZN2XPA45G1,1,regular_2,regular_2,regular,NA,NA,2,None,R,0.526,G,False,R,False
A19134KP9PBNXT:3EQHHY4HQTCQ0M1KL7MYZN2XPA45G1,1,regular_8,regular_8,regular,NA,NA,8,None,R,0.358,R,False,R,False
A19134KP9PBNXT:3EQHHY4HQTCQ0M1KL7MYZN2XPA45G1,1,regular_21,regular_21,regular,NA,NA,21,Fwd,R,0.533,R,True,G,False
A19134KP9PBNXT:3EQHHY4HQTCQ0M1KL7MYZN2XPA45G1,1,regular_7,regular_7,regular,NA,NA,7,Fwd,R,0.161,G,False,R,False
A19134KP9PBNXT:3EQHHY4HQTCQ0M1KL7MYZN2XPA45G1,1,regular_17,regular_17,regular,NA,NA,17,None,R,0.131,G,False,R,False
A19134KP9PBNXT:3EQHHY4HQTCQ0M1KL7MYZN2XPA45G1,1,regular_22,regular_22,regular,NA,NA,22,Fwd,G,0.237,G,True,R,False
A19134KP9PBNXT:3EQHHY4HQTCQ0M1KL7MYZN2XPA45G1,1,regular_13,regular_13,regular,NA,NA,13,Fwd,R,0.328,G,False,R,False
A19134KP9PBNXT:3EQHHY4HQTCQ0M1KL7MYZN2XPA45G1,1,porous_5_a,porous_5,contained,porous,a,5,Rev,G,0.697,G,False,G,False
A19134KP9PBNXT:3EQHHY4HQTCQ0M1KL7MYZN2XPA45G1,1,regular_3,regular_3,regular,NA,NA,3,Fwd,R,0.665,R,True,G,False
A19134KP9PBNXT:3EQHHY4HQTCQ0M1KL7MYZN2XPA45G1,1,stopper_5_a,stopper_5,contained,stopper,a,5,Rev,G,0.249,G,False,G,False
A19134KP9PBNXT:3EQHHY4HQTCQ0M1KL7MYZN2XPA45G1,1,regular_9,regular_9,regular,NA,NA,9,Fwd,R,0.214,R,False,R,False
A19134KP9PBNXT:3EQHHY4HQTCQ0M1KL7MYZN2XPA45G1,1,regular_6,regular_6,regular,NA,NA,6,Fwd,G,0.221,G,True,R,False
A1D0JL4MJ7XSGV:3PB5A5BD0WQ5NQF3901VX7GTGGD7GW,1,regular_1,regular_1,regular,NA,NA,1,Fwd,G,0.752,G,True,R,False
A1D0JL4MJ7XSGV:3PB5A5BD0WQ5NQF3901VX7GTGGD7GW,1,stopper_5_a,stopper_5,contained,stopper,a,5,Rev,G,1.08,G,False,G,False
A1D0JL4MJ7XSGV:3PB5A5BD0WQ5NQF3901VX7GTGGD7GW,1,regular_15,regular_15,regular,NA,NA,15,Fwd,R,1.55,G,True,G,False
A1D0JL4MJ7XSGV:3PB5A5BD0WQ5NQF3901VX7GTGGD7GW,1,stopper_6_a,stopper_6,contained,stopper,a,6,Fwd,G,0.447,G,False,G,False
A1D0JL4MJ7XSGV:3PB5A5BD0WQ5NQF3901VX7GTGGD7GW,1,complex_6_b,complex_6,contained,complex,b,6,Fwd,G,0.527,G,True,R,False
A1D0JL4MJ7XSGV:3PB5A5BD0WQ5NQF3901VX7GTGGD7GW,1,complex_1_b,complex_1,contained,complex,b,1,None,G,2.04,G,False,G,False
A1D0JL4MJ7XSGV:3PB5A5BD0WQ5NQF3901VX7GTGGD7GW,1,complex_2_b,complex_2,contained,complex,b,2,Rev,G,0.999,G,True,R,False
A1D0JL4MJ7XSGV:3PB5A5BD0WQ5NQF3901VX7GTGGD7GW,1,regular_8,regular_8,regular,NA,NA,8,None,R,1.679,R,True,G,False
A1D0JL4MJ7XSGV:3PB5A5BD0WQ5NQF3901VX7GTGGD7GW,1,size_5_c,size_5,contained,size,c,5,Rev,G,1.168,G,True,R,False
A1D0JL4MJ7XSGV:3PB5A5BD0WQ5NQF3901VX7GTGGD7GW,1,regular_10,regular_10,regular,NA,NA,10,Fwd,R,1.025,R,False,R,False
A1D0JL4MJ7XSGV:3PB5A5BD0WQ5NQF3901VX7GTGGD7GW,1,size_6_c,size_6,contained,size,c,6,Fwd,G,0.544,G,False,G,False
A1D0JL4MJ7XSGV:3PB5A5BD0WQ5NQF3901VX7GTGGD7GW,1,regular_17,regular_17,regular,NA,NA,17,None,R,1.415,G,False,R,False
A1D0JL4MJ7XSGV:3PB5A5BD0WQ5NQF3901VX7GTGGD7GW,1,regular_6,regular_6,regular,NA,NA,6,Fwd,R,0.817,G,True,G,False
A1D0JL4MJ7XSGV:3PB5A5BD0WQ5NQF3901VX7GTGGD7GW,1,complex_4_b,complex_4,contained,complex,b,4,None,G,0.641,G,True,R,True
A1D0JL4MJ7XSGV:3PB5A5BD0WQ5NQF3901VX7GTGGD7GW,1,regular_22,regular_22,regular,NA,NA,22,Fwd,G,1.072,G,True,R,False
A1D0JL4MJ7XSGV:3PB5A5BD0WQ5NQF3901VX7GTGGD7GW,1,stopper_1_a,stopper_1,contained,stopper,a,1,None,G,0.687,G,False,G,False
A1D0JL4MJ7XSGV:3PB5A5BD0WQ5NQF3901VX7GTGGD7GW,1,regular_14,regular_14,regular,NA,NA,14,None,G,0.76,G,False,G,False
A1D0JL4MJ7XSGV:3PB5A5BD0WQ5NQF3901VX7GTGGD7GW,1,regular_0,regular_0,regular,NA,NA,0,Fwd,R,0.544,R,True,G,False
A1D0JL4MJ7XSGV:3PB5A5BD0WQ5NQF3901VX7GTGGD7GW,1,porous_1_a,porous_1,contained,porous,a,1,None,G,0.705,G,False,G,False
A1D0JL4MJ7XSGV:3PB5A5BD0WQ5NQF3901VX7GTGGD7GW,1,regular_2,regular_2,regular,NA,NA,2,None,R,0.679,G,False,R,False
A1D0JL4MJ7XSGV:3PB5A5BD0WQ5NQF3901VX7GTGGD7GW,1,porous_3_a,porous_3,contained,porous,a,3,Fwd,G,0.56,G,False,G,False
A1D0JL4MJ7XSGV:3PB5A5BD0WQ5NQF3901VX7GTGGD7GW,1,porous_2_a,porous_2,contained,porous,a,2,Rev,G,0.49,G,False,G,False
A1D0JL4MJ7XSGV:3PB5A5BD0WQ5NQF3901VX7GTGGD7GW,1,regular_9,regular_9,regular,NA,NA,9,Fwd,R,0.56,R,False,R,False
A1D0JL4MJ7XSGV:3PB5A5BD0WQ5NQF3901VX7GTGGD7GW,1,regular_21,regular_21,regular,NA,NA,21,Fwd,R,1.016,R,True,G,False
A1D0JL4MJ7XSGV:3PB5A5BD0WQ5NQF3901VX7GTGGD7GW,1,porous_6_a,porous_6,contained,porous,a,6,Fwd,G,0.768,G,True,R,False
A1D0JL4MJ7XSGV:3PB5A5BD0WQ5NQF3901VX7GTGGD7GW,1,stopper_2_a,stopper_2,contained,stopper,a,2,Rev,G,0.464,G,False,G,False
A1D0JL4MJ7XSGV:3PB5A5BD0WQ5NQF3901VX7GTGGD7GW,1,regular_12,regular_12,regular,NA,NA,12,Fwd,R,0.464,G,False,R,False
A1D0JL4MJ7XSGV:3PB5A5BD0WQ5NQF3901VX7GTGGD7GW,1,regular_16,regular_16,regular,NA,NA,16,Fwd,G,0.72,G,True,R,False
A1D0JL4MJ7XSGV:3PB5A5BD0WQ5NQF3901VX7GTGGD7GW,1,regular_11,regular_11,regular,NA,NA,11,None,G,0.985,R,False,G,False
A1D0JL4MJ7XSGV:3PB5A5BD0WQ5NQF3901VX7GTGGD7GW,1,size_2_c,size_2,contained,size,c,2,Rev,G,0.569,G,False,G,False
A1D0JL4MJ7XSGV:3PB5A5BD0WQ5NQF3901VX7GTGGD7GW,1,complex_3_b,complex_3,contained,complex,b,3,Fwd,G,0.585,G,False,G,False
A1D0JL4MJ7XSGV:3PB5A5BD0WQ5NQF3901VX7GTGGD7GW,1,regular_3,regular_3,regular,NA,NA,3,Fwd,G,1.12,R,False,G,False
A1D0JL4MJ7XSGV:3PB5A5BD0WQ5NQF3901VX7GTGGD7GW,1,size_1_c,size_1,contained,size,c,1,None,G,0.553,G,True,R,False
A1D0JL4MJ7XSGV:3PB5A5BD0WQ5NQF3901VX7GTGGD7GW,1,regular_23,regular_23,regular,NA,NA,23,None,R,1.249,R,False,R,False
A1D0JL4MJ7XSGV:3PB5A5BD0WQ5NQF3901VX7GTGGD7GW,1,stopper_4_a,stopper_4,contained,stopper,a,4,None,G,0.593,G,True,R,False
A1D0JL4MJ7XSGV:3PB5A5BD0WQ5NQF3901VX7GTGGD7GW,1,complex_5_b,complex_5,contained,complex,b,5,Rev,G,0.569,G,False,G,False
A1D0JL4MJ7XSGV:3PB5A5BD0WQ5NQF3901VX7GTGGD7GW,1,regular_5,regular_5,regular,NA,NA,5,None,R,1.352,R,True,G,False
A1D0JL4MJ7XSGV:3PB5A5BD0WQ5NQF3901VX7GTGGD7GW,1,regular_13,regular_13,regular,NA,NA,13,Fwd,R,0.61,G,False,R,False
A1D0JL4MJ7XSGV:3PB5A5BD0WQ5NQF3901VX7GTGGD7GW,1,regular_19,regular_19,regular,NA,NA,19,Fwd,R,0.882,G,False,R,False
A1D0JL4MJ7XSGV:3PB5A5BD0WQ5NQF3901VX7GTGGD7GW,1,size_3_c,size_3,contained,size,c,3,Fwd,G,0.592,G,True,R,False
A1D0JL4MJ7XSGV:3PB5A5BD0WQ5NQF3901VX7GTGGD7GW,1,regular_20,regular_20,regular,NA,NA,20,None,G,0.576,G,False,G,False
A1D0JL4MJ7XSGV:3PB5A5BD0WQ5NQF3901VX7GTGGD7GW,1,regular_7,regular_7,regular,NA,NA,7,Fwd,G,0.632,G,True,R,False
A1D0JL4MJ7XSGV:3PB5A5BD0WQ5NQF3901VX7GTGGD7GW,1,porous_4_a,porous_4,contained,porous,a,4,None,G,0.153,G,False,G,False
A1D0JL4MJ7XSGV:3PB5A5BD0WQ5NQF3901VX7GTGGD7GW,1,regular_18,regular_18,regular,NA,NA,18,Fwd,R,0.048,G,True,G,False
A1D0JL4MJ7XSGV:3PB5A5BD0WQ5NQF3901VX7GTGGD7GW,1,size_4_c,size_4,contained,size,c,4,None,R,0.169,G,True,G,False
A1D0JL4MJ7XSGV:3PB5A5BD0WQ5NQF3901VX7GTGGD7GW,1,porous_5_a,porous_5,contained,porous,a,5,Rev,G,0.217,G,False,G,False
A1D0JL4MJ7XSGV:3PB5A5BD0WQ5NQF3901VX7GTGGD7GW,1,stopper_3_a,stopper_3,contained,stopper,a,3,Fwd,G,0.409,G,True,R,False
A1D0JL4MJ7XSGV:3PB5A5BD0WQ5NQF3901VX7GTGGD7GW,1,regular_4,regular_4,regular,NA,NA,4,Fwd,R,0.392,R,True,G,False
A1L8EDNM7HZZAX:3LQ8PUHQFMCGC6RACXNA9WI39W1HI0,1,regular_9,regular_9,regular,NA,NA,9,Fwd,R,0.942,R,False,R,False
A1L8EDNM7HZZAX:3LQ8PUHQFMCGC6RACXNA9WI39W1HI0,1,regular_15,regular_15,regular,NA,NA,15,Fwd,R,0.329,G,False,R,False
A1L8EDNM7HZZAX:3LQ8PUHQFMCGC6RACXNA9WI39W1HI0,1,regular_12,regular_12,regular,NA,NA,12,Fwd,R,0.633,G,False,R,False
A1L8EDNM7HZZAX:3LQ8PUHQFMCGC6RACXNA9WI39W1HI0,1,regular_16,regular_16,regular,NA,NA,16,Fwd,G,0.577,G,False,G,False
A1L8EDNM7HZZAX:3LQ8PUHQFMCGC6RACXNA9WI39W1HI0,1,stopper_2_a,stopper_2,contained,stopper,a,2,Rev,G,0.458,G,False,G,False
A1L8EDNM7HZZAX:3LQ8PUHQFMCGC6RACXNA9WI39W1HI0,1,regular_14,regular_14,regular,NA,NA,14,None,R,0.521,G,True,G,False
A1L8EDNM7HZZAX:3LQ8PUHQFMCGC6RACXNA9WI39W1HI0,1,regular_13,regular_13,regular,NA,NA,13,Fwd,G,0.564,G,True,R,False
A1L8EDNM7HZZAX:3LQ8PUHQFMCGC6RACXNA9WI39W1HI0,1,porous_1_a,porous_1,contained,porous,a,1,None,G,0.257,G,True,R,False
A1L8EDNM7HZZAX:3LQ8PUHQFMCGC6RACXNA9WI39W1HI0,1,size_4_c,size_4,contained,size,c,4,None,G,0.105,G,True,R,False
A1L8EDNM7HZZAX:3LQ8PUHQFMCGC6RACXNA9WI39W1HI0,1,regular_1,regular_1,regular,NA,NA,1,Fwd,G,0.072,G,False,G,False
A1L8EDNM7HZZAX:3LQ8PUHQFMCGC6RACXNA9WI39W1HI0,1,regular_19,regular_19,regular,NA,NA,19,Fwd,R,0.058,G,False,R,False
A1L8EDNM7HZZAX:3LQ8PUHQFMCGC6RACXNA9WI39W1HI0,1,regular_11,regular_11,regular,NA,NA,11,None,G,0.025,R,False,G,False
A1L8EDNM7HZZAX:3LQ8PUHQFMCGC6RACXNA9WI39W1HI0,1,regular_4,regular_4,regular,NA,NA,4,Fwd,R,0.889,R,True,G,False
A1L8EDNM7HZZAX:3LQ8PUHQFMCGC6RACXNA9WI39W1HI0,1,size_6_c,size_6,contained,size,c,6,Fwd,R,0.196,G,True,G,False
A1L8EDNM7HZZAX:3LQ8PUHQFMCGC6RACXNA9WI39W1HI0,1,regular_5,regular_5,regular,NA,NA,5,None,R,0.424,R,True,G,False
A1L8EDNM7HZZAX:3LQ8PUHQFMCGC6RACXNA9WI39W1HI0,1,stopper_6_a,stopper_6,contained,stopper,a,6,Fwd,G,0.336,G,False,G,False
A1L8EDNM7HZZAX:3LQ8PUHQFMCGC6RACXNA9WI39W1HI0,1,complex_4_b,complex_4,contained,complex,b,4,None,G,0.165,G,False,G,False
A1L8EDNM7HZZAX:3LQ8PUHQFMCGC6RACXNA9WI39W1HI0,1,regular_0,regular_0,regular,NA,NA,0,Fwd,G,0.409,R,True,R,False
A1L8EDNM7HZZAX:3LQ8PUHQFMCGC6RACXNA9WI39W1HI0,1,regular_23,regular_23,regular,NA,NA,23,None,R,0.282,R,False,R,False
A1L8EDNM7HZZAX:3LQ8PUHQFMCGC6RACXNA9WI39W1HI0,1,size_2_c,size_2,contained,size,c,2,Rev,G,0.353,G,False,G,False
A1L8EDNM7HZZAX:3LQ8PUHQFMCGC6RACXNA9WI39W1HI0,1,stopper_1_a,stopper_1,contained,stopper,a,1,None,G,0.712,G,True,R,False
A1L8EDNM7HZZAX:3LQ8PUHQFMCGC6RACXNA9WI39W1HI0,1,regular_7,regular_7,regular,NA,NA,7,Fwd,G,0.319,G,True,R,False
A1L8EDNM7HZZAX:3LQ8PUHQFMCGC6RACXNA9WI39W1HI0,1,complex_5_b,complex_5,contained,complex,b,5,Rev,G,0.273,G,False,G,False
A1L8EDNM7HZZAX:3LQ8PUHQFMCGC6RACXNA9WI39W1HI0,1,regular_22,regular_22,regular,NA,NA,22,Fwd,G,0.672,G,True,R,False
A1L8EDNM7HZZAX:3LQ8PUHQFMCGC6RACXNA9WI39W1HI0,1,regular_2,regular_2,regular,NA,NA,2,None,R,0.182,G,False,R,False
A1L8EDNM7HZZAX:3LQ8PUHQFMCGC6RACXNA9WI39W1HI0,1,regular_8,regular_8,regular,NA,NA,8,None,R,0.025,R,True,G,False
A1L8EDNM7HZZAX:3LQ8PUHQFMCGC6RACXNA9WI39W1HI0,1,regular_21,regular_21,regular,NA,NA,21,Fwd,R,0.383,R,False,R,False
A1L8EDNM7HZZAX:3LQ8PUHQFMCGC6RACXNA9WI39W1HI0,1,porous_3_a,porous_3,contained,porous,a,3,Fwd,R,0.113,G,False,R,False
A1L8EDNM7HZZAX:3LQ8PUHQFMCGC6RACXNA9WI39W1HI0,1,regular_6,regular_6,regular,NA,NA,6,Fwd,G,0.313,G,False,G,False
A1L8EDNM7HZZAX:3LQ8PUHQFMCGC6RACXNA9WI39W1HI0,1,complex_2_b,complex_2,contained,complex,b,2,Rev,G,0.645,G,True,R,False
A1L8EDNM7HZZAX:3LQ8PUHQFMCGC6RACXNA9WI39W1HI0,1,porous_5_a,porous_5,contained,porous,a,5,Rev,R,0.08,G,True,G,False
A1L8EDNM7HZZAX:3LQ8PUHQFMCGC6RACXNA9WI39W1HI0,1,size_3_c,size_3,contained,size,c,3,Fwd,G,0.18,G,True,R,False
A1L8EDNM7HZZAX:3LQ8PUHQFMCGC6RACXNA9WI39W1HI0,1,size_1_c,size_1,contained,size,c,1,None,G,0.033,G,True,R,False
A1L8EDNM7HZZAX:3LQ8PUHQFMCGC6RACXNA9WI39W1HI0,1,complex_1_b,complex_1,contained,complex,b,1,None,G,0.211,G,True,R,False
A1L8EDNM7HZZAX:3LQ8PUHQFMCGC6RACXNA9WI39W1HI0,1,regular_3,regular_3,regular,NA,NA,3,Fwd,R,0.09,R,False,R,False
A1L8EDNM7HZZAX:3LQ8PUHQFMCGC6RACXNA9WI39W1HI0,1,stopper_5_a,stopper_5,contained,stopper,a,5,Rev,G,0.041,G,False,G,False
A1L8EDNM7HZZAX:3LQ8PUHQFMCGC6RACXNA9WI39W1HI0,1,porous_6_a,porous_6,contained,porous,a,6,Fwd,R,0.177,G,False,R,False
A1L8EDNM7HZZAX:3LQ8PUHQFMCGC6RACXNA9WI39W1HI0,1,regular_17,regular_17,regular,NA,NA,17,None,G,0.065,G,False,G,False
A1L8EDNM7HZZAX:3LQ8PUHQFMCGC6RACXNA9WI39W1HI0,1,size_5_c,size_5,contained,size,c,5,Rev,G,0.085,G,True,R,False
A1L8EDNM7HZZAX:3LQ8PUHQFMCGC6RACXNA9WI39W1HI0,1,complex_6_b,complex_6,contained,complex,b,6,Fwd,G,0.394,G,True,R,False
A1L8EDNM7HZZAX:3LQ8PUHQFMCGC6RACXNA9WI39W1HI0,1,complex_3_b,complex_3,contained,complex,b,3,Fwd,G,0.169,G,False,G,False
A1L8EDNM7HZZAX:3LQ8PUHQFMCGC6RACXNA9WI39W1HI0,1,regular_10,regular_10,regular,NA,NA,10,Fwd,G,0.468,R,True,R,False
A1L8EDNM7HZZAX:3LQ8PUHQFMCGC6RACXNA9WI39W1HI0,1,regular_20,regular_20,regular,NA,NA,20,None,G,0.089,G,False,G,False
A1L8EDNM7HZZAX:3LQ8PUHQFMCGC6RACXNA9WI39W1HI0,1,porous_2_a,porous_2,contained,porous,a,2,Rev,G,0.277,G,False,G,False
A1L8EDNM7HZZAX:3LQ8PUHQFMCGC6RACXNA9WI39W1HI0,1,stopper_4_a,stopper_4,contained,stopper,a,4,None,G,0.105,G,False,G,False
A1L8EDNM7HZZAX:3LQ8PUHQFMCGC6RACXNA9WI39W1HI0,1,porous_4_a,porous_4,contained,porous,a,4,None,G,0.065,G,True,R,False
A1L8EDNM7HZZAX:3LQ8PUHQFMCGC6RACXNA9WI39W1HI0,1,regular_18,regular_18,regular,NA,NA,18,Fwd,G,0.395,G,True,R,False
A1L8EDNM7HZZAX:3LQ8PUHQFMCGC6RACXNA9WI39W1HI0,1,stopper_3_a,stopper_3,contained,stopper,a,3,Fwd,G,0.161,G,True,R,False
A1LQHI9L1DXN13:3OJSZ2ATDTG77TQJS4I4TAP4Q7Z57C,0,size_1_c,size_1,contained,size,c,1,Fwd,G,0.393,G,False,G,False
A1LQHI9L1DXN13:3OJSZ2ATDTG77TQJS4I4TAP4Q7Z57C,0,stopper_2_a,stopper_2,contained,stopper,a,2,None,G,0.466,G,False,G,False
A1LQHI9L1DXN13:3OJSZ2ATDTG77TQJS4I4TAP4Q7Z57C,0,regular_15,regular_15,regular,NA,NA,15,None,G,2.252,G,True,R,False
A1LQHI9L1DXN13:3OJSZ2ATDTG77TQJS4I4TAP4Q7Z57C,0,complex_6_b,complex_6,contained,complex,b,6,Rev,G,0.918,G,False,G,False
A1LQHI9L1DXN13:3OJSZ2ATDTG77TQJS4I4TAP4Q7Z57C,0,porous_1_a,porous_1,contained,porous,a,1,Fwd,G,0.16,G,True,R,False
A1LQHI9L1DXN13:3OJSZ2ATDTG77TQJS4I4TAP4Q7Z57C,0,regular_2,regular_2,regular,NA,NA,2,Fwd,G,0.458,G,True,R,False
A1LQHI9L1DXN13:3OJSZ2ATDTG77TQJS4I4TAP4Q7Z57C,0,regular_8,regular_8,regular,NA,NA,8,Fwd,G,0.103,R,False,G,False
A1LQHI9L1DXN13:3OJSZ2ATDTG77TQJS4I4TAP4Q7Z57C,0,stopper_3_a,stopper_3,contained,stopper,a,3,Rev,G,0.163,G,False,G,False
A1LQHI9L1DXN13:3OJSZ2ATDTG77TQJS4I4TAP4Q7Z57C,0,regular_18,regular_18,regular,NA,NA,18,None,G,0.666,G,False,G,False
A1LQHI9L1DXN13:3OJSZ2ATDTG77TQJS4I4TAP4Q7Z57C,0,porous_4_a,porous_4,contained,porous,a,4,Fwd,G,0.278,G,True,R,False
A1LQHI9L1DXN13:3OJSZ2ATDTG77TQJS4I4TAP4Q7Z57C,0,regular_12,regular_12,regular,NA,NA,12,None,R,0.782,G,True,G,False
A1LQHI9L1DXN13:3OJSZ2ATDTG77TQJS4I4TAP4Q7Z57C,0,stopper_6_a,stopper_6,contained,stopper,a,6,Rev,G,0.428,G,True,R,False
A1LQHI9L1DXN13:3OJSZ2ATDTG77TQJS4I4TAP4Q7Z57C,0,regular_0,regular_0,regular,NA,NA,0,None,G,0.834,R,True,R,False
A1LQHI9L1DXN13:3OJSZ2ATDTG77TQJS4I4TAP4Q7Z57C,0,size_5_c,size_5,contained,size,c,5,None,G,0.991,G,True,R,False
A1LQHI9L1DXN13:3OJSZ2ATDTG77TQJS4I4TAP4Q7Z57C,0,porous_2_a,porous_2,contained,porous,a,2,None,G,0.163,G,True,R,False
A1LQHI9L1DXN13:3OJSZ2ATDTG77TQJS4I4TAP4Q7Z57C,0,porous_3_a,porous_3,contained,porous,a,3,Rev,G,0.425,G,True,R,False
A1LQHI9L1DXN13:3OJSZ2ATDTG77TQJS4I4TAP4Q7Z57C,0,porous_6_a,porous_6,contained,porous,a,6,Rev,G,0.222,G,True,R,False
A1LQHI9L1DXN13:3OJSZ2ATDTG77TQJS4I4TAP4Q7Z57C,0,regular_13,regular_13,regular,NA,NA,13,Fwd,G,0.351,G,False,G,False
A1LQHI9L1DXN13:3OJSZ2ATDTG77TQJS4I4TAP4Q7Z57C,0,regular_23,regular_23,regular,NA,NA,23,Fwd,G,0.334,R,False,G,False
A1LQHI9L1DXN13:3OJSZ2ATDTG77TQJS4I4TAP4Q7Z57C,0,regular_6,regular_6,regular,NA,NA,6,None,R,0.518,G,False,R,False
A1LQHI9L1DXN13:3OJSZ2ATDTG77TQJS4I4TAP4Q7Z57C,0,size_6_c,size_6,contained,size,c,6,Rev,G,0.184,G,True,R,False
A1LQHI9L1DXN13:3OJSZ2ATDTG77TQJS4I4TAP4Q7Z57C,0,stopper_1_a,stopper_1,contained,stopper,a,1,Fwd,R,0.074,G,False,R,False
A1LQHI9L1DXN13:3OJSZ2ATDTG77TQJS4I4TAP4Q7Z57C,0,size_4_c,size_4,contained,size,c,4,Fwd,G,0.21,G,True,R,False
A1LQHI9L1DXN13:3OJSZ2ATDTG77TQJS4I4TAP4Q7Z57C,0,complex_4_b,complex_4,contained,complex,b,4,Fwd,G,0.299,G,True,R,False
A1LQHI9L1DXN13:3OJSZ2ATDTG77TQJS4I4TAP4Q7Z57C,0,regular_17,regular_17,regular,NA,NA,17,Fwd,G,0.471,G,True,R,False
A1LQHI9L1DXN13:3OJSZ2ATDTG77TQJS4I4TAP4Q7Z57C,0,regular_11,regular_11,regular,NA,NA,11,Fwd,R,0.392,R,True,G,False
A1LQHI9L1DXN13:3OJSZ2ATDTG77TQJS4I4TAP4Q7Z57C,0,complex_1_b,complex_1,contained,complex,b,1,Fwd,G,0.148,G,True,R,False
A1LQHI9L1DXN13:3OJSZ2ATDTG77TQJS4I4TAP4Q7Z57C,0,stopper_4_a,stopper_4,contained,stopper,a,4,Fwd,G,0.129,G,True,R,False
A1LQHI9L1DXN13:3OJSZ2ATDTG77TQJS4I4TAP4Q7Z57C,0,complex_5_b,complex_5,contained,complex,b,5,None,G,0.735,G,True,R,False
A1LQHI9L1DXN13:3OJSZ2ATDTG77TQJS4I4TAP4Q7Z57C,0,regular_16,regular_16,regular,NA,NA,16,Fwd,G,0.442,G,True,R,False
A1LQHI9L1DXN13:3OJSZ2ATDTG77TQJS4I4TAP4Q7Z57C,0,regular_19,regular_19,regular,NA,NA,19,Fwd,R,0.362,G,True,G,False
A1LQHI9L1DXN13:3OJSZ2ATDTG77TQJS4I4TAP4Q7Z57C,0,regular_3,regular_3,regular,NA,NA,3,None,R,0.658,R,False,R,False
A1LQHI9L1DXN13:3OJSZ2ATDTG77TQJS4I4TAP4Q7Z57C,0,porous_5_a,porous_5,contained,porous,a,5,None,G,0.313,G,False,G,False
A1LQHI9L1DXN13:3OJSZ2ATDTG77TQJS4I4TAP4Q7Z57C,0,regular_1,regular_1,regular,NA,NA,1,Fwd,G,0.493,G,False,G,False
A1LQHI9L1DXN13:3OJSZ2ATDTG77TQJS4I4TAP4Q7Z57C,0,regular_10,regular_10,regular,NA,NA,10,Fwd,G,1.291,R,False,G,False
A1LQHI9L1DXN13:3OJSZ2ATDTG77TQJS4I4TAP4Q7Z57C,0,regular_9,regular_9,regular,NA,NA,9,None,R,0.558,R,True,G,False
A1LQHI9L1DXN13:3OJSZ2ATDTG77TQJS4I4TAP4Q7Z57C,0,size_2_c,size_2,contained,size,c,2,None,G,0.269,G,True,R,False
A1LQHI9L1DXN13:3OJSZ2ATDTG77TQJS4I4TAP4Q7Z57C,0,regular_4,regular_4,regular,NA,NA,4,Fwd,R,0.048,R,True,G,False
A1LQHI9L1DXN13:3OJSZ2ATDTG77TQJS4I4TAP4Q7Z57C,0,complex_2_b,complex_2,contained,complex,b,2,None,G,0.226,G,True,R,False
A1LQHI9L1DXN13:3OJSZ2ATDTG77TQJS4I4TAP4Q7Z57C,0,regular_22,regular_22,regular,NA,NA,22,Fwd,G,1.414,G,False,G,False
A1LQHI9L1DXN13:3OJSZ2ATDTG77TQJS4I4TAP4Q7Z57C,0,regular_7,regular_7,regular,NA,NA,7,Fwd,G,0.313,G,True,R,False
A1LQHI9L1DXN13:3OJSZ2ATDTG77TQJS4I4TAP4Q7Z57C,0,regular_5,regular_5,regular,NA,NA,5,Fwd,G,0.397,R,False,G,False
A1LQHI9L1DXN13:3OJSZ2ATDTG77TQJS4I4TAP4Q7Z57C,0,regular_14,regular_14,regular,NA,NA,14,Fwd,R,0.881,G,False,R,False
A1LQHI9L1DXN13:3OJSZ2ATDTG77TQJS4I4TAP4Q7Z57C,0,complex_3_b,complex_3,contained,complex,b,3,Rev,R,0.347,G,True,G,False
A1LQHI9L1DXN13:3OJSZ2ATDTG77TQJS4I4TAP4Q7Z57C,0,regular_21,regular_21,regular,NA,NA,21,None,R,1.11,R,True,G,False
A1LQHI9L1DXN13:3OJSZ2ATDTG77TQJS4I4TAP4Q7Z57C,0,stopper_5_a,stopper_5,contained,stopper,a,5,None,G,0.288,G,True,R,False
A1LQHI9L1DXN13:3OJSZ2ATDTG77TQJS4I4TAP4Q7Z57C,0,size_3_c,size_3,contained,size,c,3,Rev,G,0.061,G,True,R,False
A1LQHI9L1DXN13:3OJSZ2ATDTG77TQJS4I4TAP4Q7Z57C,0,regular_20,regular_20,regular,NA,NA,20,Fwd,G,0.529,G,False,G,False
A1LRDHZZUVF9AZ:35LDD5557BOTAFI93XOZEH5CIL8MK6,1,size_2_c,size_2,contained,size,c,2,Rev,R,0.596,G,True,G,False
A1LRDHZZUVF9AZ:35LDD5557BOTAFI93XOZEH5CIL8MK6,1,regular_11,regular_11,regular,NA,NA,11,None,R,1.349,R,True,G,False
A1LRDHZZUVF9AZ:35LDD5557BOTAFI93XOZEH5CIL8MK6,1,regular_23,regular_23,regular,NA,NA,23,None,G,0.521,R,False,G,False
A1LRDHZZUVF9AZ:35LDD5557BOTAFI93XOZEH5CIL8MK6,1,porous_3_a,porous_3,contained,porous,a,3,Fwd,G,0.393,G,True,R,False
A1LRDHZZUVF9AZ:35LDD5557BOTAFI93XOZEH5CIL8MK6,1,porous_2_a,porous_2,contained,porous,a,2,Rev,R,0.183,G,False,R,False
A1LRDHZZUVF9AZ:35LDD5557BOTAFI93XOZEH5CIL8MK6,1,size_4_c,size_4,contained,size,c,4,None,G,0.518,G,True,R,False
A1LRDHZZUVF9AZ:35LDD5557BOTAFI93XOZEH5CIL8MK6,1,size_5_c,size_5,contained,size,c,5,Rev,G,0.297,G,False,G,False
A1LRDHZZUVF9AZ:35LDD5557BOTAFI93XOZEH5CIL8MK6,1,regular_4,regular_4,regular,NA,NA,4,Fwd,G,0.361,R,False,G,False
A1LRDHZZUVF9AZ:35LDD5557BOTAFI93XOZEH5CIL8MK6,1,complex_1_b,complex_1,contained,complex,b,1,None,G,0.759,G,False,G,False
A1LRDHZZUVF9AZ:35LDD5557BOTAFI93XOZEH5CIL8MK6,1,porous_6_a,porous_6,contained,porous,a,6,Fwd,G,0.392,G,False,G,False
A1LRDHZZUVF9AZ:35LDD5557BOTAFI93XOZEH5CIL8MK6,1,complex_6_b,complex_6,contained,complex,b,6,Fwd,G,0.554,G,True,R,False
A1LRDHZZUVF9AZ:35LDD5557BOTAFI93XOZEH5CIL8MK6,1,size_1_c,size_1,contained,size,c,1,None,G,0.357,G,False,G,False
A1LRDHZZUVF9AZ:35LDD5557BOTAFI93XOZEH5CIL8MK6,1,complex_5_b,complex_5,contained,complex,b,5,Rev,G,0.357,G,False,G,False
A1LRDHZZUVF9AZ:35LDD5557BOTAFI93XOZEH5CIL8MK6,1,stopper_5_a,stopper_5,contained,stopper,a,5,Rev,G,0.374,G,True,R,False
A1LRDHZZUVF9AZ:35LDD5557BOTAFI93XOZEH5CIL8MK6,1,regular_5,regular_5,regular,NA,NA,5,None,G,0.883,R,False,G,False
A1LRDHZZUVF9AZ:35LDD5557BOTAFI93XOZEH5CIL8MK6,1,regular_14,regular_14,regular,NA,NA,14,None,G,1.139,G,True,R,False
A1LRDHZZUVF9AZ:35LDD5557BOTAFI93XOZEH5CIL8MK6,1,stopper_3_a,stopper_3,contained,stopper,a,3,Fwd,G,0.373,G,True,R,False
A1LRDHZZUVF9AZ:35LDD5557BOTAFI93XOZEH5CIL8MK6,1,regular_15,regular_15,regular,NA,NA,15,Fwd,R,0.458,G,True,G,False
A1LRDHZZUVF9AZ:35LDD5557BOTAFI93XOZEH5CIL8MK6,1,regular_21,regular_21,regular,NA,NA,21,Fwd,G,1.288,R,True,R,False
A1LRDHZZUVF9AZ:35LDD5557BOTAFI93XOZEH5CIL8MK6,1,size_3_c,size_3,contained,size,c,3,Fwd,G,0.421,G,True,R,False
A1LRDHZZUVF9AZ:35LDD5557BOTAFI93XOZEH5CIL8MK6,1,stopper_2_a,stopper_2,contained,stopper,a,2,Rev,G,0.277,G,False,G,False
A1LRDHZZUVF9AZ:35LDD5557BOTAFI93XOZEH5CIL8MK6,1,porous_1_a,porous_1,contained,porous,a,1,None,G,0.25,G,True,R,False
A1LRDHZZUVF9AZ:35LDD5557BOTAFI93XOZEH5CIL8MK6,1,complex_3_b,complex_3,contained,complex,b,3,Fwd,G,0.425,G,True,R,False
A1LRDHZZUVF9AZ:35LDD5557BOTAFI93XOZEH5CIL8MK6,1,regular_10,regular_10,regular,NA,NA,10,Fwd,R,0.584,R,False,R,False
A1LRDHZZUVF9AZ:35LDD5557BOTAFI93XOZEH5CIL8MK6,1,regular_2,regular_2,regular,NA,NA,2,None,R,1.719,G,True,G,False
A1LRDHZZUVF9AZ:35LDD5557BOTAFI93XOZEH5CIL8MK6,1,regular_17,regular_17,regular,NA,NA,17,None,R,1.785,G,True,G,False
A1LRDHZZUVF9AZ:35LDD5557BOTAFI93XOZEH5CIL8MK6,1,regular_1,regular_1,regular,NA,NA,1,Fwd,R,1.047,G,True,G,False
A1LRDHZZUVF9AZ:35LDD5557BOTAFI93XOZEH5CIL8MK6,1,porous_5_a,porous_5,contained,porous,a,5,Rev,G,0.393,G,False,G,False
A1LRDHZZUVF9AZ:35LDD5557BOTAFI93XOZEH5CIL8MK6,1,stopper_1_a,stopper_1,contained,stopper,a,1,None,G,0.24,G,True,R,False
A1LRDHZZUVF9AZ:35LDD5557BOTAFI93XOZEH5CIL8MK6,1,regular_19,regular_19,regular,NA,NA,19,Fwd,R,0.758,G,True,G,False
A1LRDHZZUVF9AZ:35LDD5557BOTAFI93XOZEH5CIL8MK6,1,regular_18,regular_18,regular,NA,NA,18,Fwd,G,1.24,G,True,R,False
A1LRDHZZUVF9AZ:35LDD5557BOTAFI93XOZEH5CIL8MK6,1,regular_3,regular_3,regular,NA,NA,3,Fwd,G,1.784,R,False,G,False
A1LRDHZZUVF9AZ:35LDD5557BOTAFI93XOZEH5CIL8MK6,1,regular_8,regular_8,regular,NA,NA,8,None,R,1.802,R,False,R,False
A1LRDHZZUVF9AZ:35LDD5557BOTAFI93XOZEH5CIL8MK6,1,regular_13,regular_13,regular,NA,NA,13,Fwd,G,1.19,G,False,G,False
A1LRDHZZUVF9AZ:35LDD5557BOTAFI93XOZEH5CIL8MK6,1,regular_0,regular_0,regular,NA,NA,0,Fwd,R,0.777,R,False,R,False
A1LRDHZZUVF9AZ:35LDD5557BOTAFI93XOZEH5CIL8MK6,1,regular_12,regular_12,regular,NA,NA,12,Fwd,G,1.351,G,False,G,False
A1LRDHZZUVF9AZ:35LDD5557BOTAFI93XOZEH5CIL8MK6,1,regular_16,regular_16,regular,NA,NA,16,Fwd,G,0.952,G,True,R,False
A1LRDHZZUVF9AZ:35LDD5557BOTAFI93XOZEH5CIL8MK6,1,porous_4_a,porous_4,contained,porous,a,4,None,G,0.489,G,False,G,False
A1LRDHZZUVF9AZ:35LDD5557BOTAFI93XOZEH5CIL8MK6,1,regular_6,regular_6,regular,NA,NA,6,Fwd,G,1.784,G,False,G,False
A1LRDHZZUVF9AZ:35LDD5557BOTAFI93XOZEH5CIL8MK6,1,regular_20,regular_20,regular,NA,NA,20,None,G,0.599,G,True,R,False
A1LRDHZZUVF9AZ:35LDD5557BOTAFI93XOZEH5CIL8MK6,1,regular_7,regular_7,regular,NA,NA,7,Fwd,G,0.903,G,True,R,False
A1LRDHZZUVF9AZ:35LDD5557BOTAFI93XOZEH5CIL8MK6,1,stopper_4_a,stopper_4,contained,stopper,a,4,None,G,0.402,G,False,G,False
A1LRDHZZUVF9AZ:35LDD5557BOTAFI93XOZEH5CIL8MK6,1,size_6_c,size_6,contained,size,c,6,Fwd,G,0.241,G,False,G,False
A1LRDHZZUVF9AZ:35LDD5557BOTAFI93XOZEH5CIL8MK6,1,complex_2_b,complex_2,contained,complex,b,2,Rev,G,0.745,G,True,R,False
A1LRDHZZUVF9AZ:35LDD5557BOTAFI93XOZEH5CIL8MK6,1,regular_22,regular_22,regular,NA,NA,22,Fwd,R,0.931,G,True,G,False
A1LRDHZZUVF9AZ:35LDD5557BOTAFI93XOZEH5CIL8MK6,1,regular_9,regular_9,regular,NA,NA,9,Fwd,R,0.485,R,False,R,False
A1LRDHZZUVF9AZ:35LDD5557BOTAFI93XOZEH5CIL8MK6,1,stopper_6_a,stopper_6,contained,stopper,a,6,Fwd,G,0.581,G,False,G,False
A1LRDHZZUVF9AZ:35LDD5557BOTAFI93XOZEH5CIL8MK6,1,complex_4_b,complex_4,contained,complex,b,4,None,G,0.505,G,False,G,False
A1MJHGH55K3O0:3C8HJ7UOP8EOZAHV3YR91WTPMVOMZX,0,regular_17,regular_17,regular,NA,NA,17,Fwd,G,0.665,G,False,G,False
A1MJHGH55K3O0:3C8HJ7UOP8EOZAHV3YR91WTPMVOMZX,0,complex_5_b,complex_5,contained,complex,b,5,None,G,0.8,G,False,G,False
A1MJHGH55K3O0:3C8HJ7UOP8EOZAHV3YR91WTPMVOMZX,0,stopper_6_a,stopper_6,contained,stopper,a,6,Rev,G,0.257,G,True,R,False
A1MJHGH55K3O0:3C8HJ7UOP8EOZAHV3YR91WTPMVOMZX,0,regular_20,regular_20,regular,NA,NA,20,Fwd,R,0.393,G,False,R,False
A1MJHGH55K3O0:3C8HJ7UOP8EOZAHV3YR91WTPMVOMZX,0,regular_18,regular_18,regular,NA,NA,18,None,G,0.594,G,True,R,False
A1MJHGH55K3O0:3C8HJ7UOP8EOZAHV3YR91WTPMVOMZX,0,regular_6,regular_6,regular,NA,NA,6,None,R,0.394,G,True,G,False
A1MJHGH55K3O0:3C8HJ7UOP8EOZAHV3YR91WTPMVOMZX,0,porous_2_a,porous_2,contained,porous,a,2,None,G,0.649,G,False,G,False
A1MJHGH55K3O0:3C8HJ7UOP8EOZAHV3YR91WTPMVOMZX,0,regular_12,regular_12,regular,NA,NA,12,None,G,0.306,G,True,R,False
A1MJHGH55K3O0:3C8HJ7UOP8EOZAHV3YR91WTPMVOMZX,0,regular_21,regular_21,regular,NA,NA,21,None,G,0.481,R,False,G,False
A1MJHGH55K3O0:3C8HJ7UOP8EOZAHV3YR91WTPMVOMZX,0,porous_6_a,porous_6,contained,porous,a,6,Rev,G,1.057,G,False,G,False
A1MJHGH55K3O0:3C8HJ7UOP8EOZAHV3YR91WTPMVOMZX,0,size_2_c,size_2,contained,size,c,2,None,G,0.657,G,False,G,False
A1MJHGH55K3O0:3C8HJ7UOP8EOZAHV3YR91WTPMVOMZX,0,regular_23,regular_23,regular,NA,NA,23,Fwd,R,0.242,R,True,G,False
A1MJHGH55K3O0:3C8HJ7UOP8EOZAHV3YR91WTPMVOMZX,0,stopper_2_a,stopper_2,contained,stopper,a,2,None,G,0.45,G,True,R,False
A1MJHGH55K3O0:3C8HJ7UOP8EOZAHV3YR91WTPMVOMZX,0,regular_15,regular_15,regular,NA,NA,15,None,R,0.177,G,True,G,False
A1MJHGH55K3O0:3C8HJ7UOP8EOZAHV3YR91WTPMVOMZX,0,regular_9,regular_9,regular,NA,NA,9,None,R,0.345,R,False,R,False
A1MJHGH55K3O0:3C8HJ7UOP8EOZAHV3YR91WTPMVOMZX,0,size_4_c,size_4,contained,size,c,4,Fwd,R,0.241,G,False,R,False
A1MJHGH55K3O0:3C8HJ7UOP8EOZAHV3YR91WTPMVOMZX,0,regular_5,regular_5,regular,NA,NA,5,Fwd,G,0.154,R,False,G,False
A1MJHGH55K3O0:3C8HJ7UOP8EOZAHV3YR91WTPMVOMZX,0,complex_6_b,complex_6,contained,complex,b,6,Rev,R,0.369,G,False,R,False
A1MJHGH55K3O0:3C8HJ7UOP8EOZAHV3YR91WTPMVOMZX,0,regular_13,regular_13,regular,NA,NA,13,Fwd,R,0.409,G,False,R,False
A1MJHGH55K3O0:3C8HJ7UOP8EOZAHV3YR91WTPMVOMZX,0,regular_10,regular_10,regular,NA,NA,10,Fwd,R,0.433,R,True,G,False
A1MJHGH55K3O0:3C8HJ7UOP8EOZAHV3YR91WTPMVOMZX,0,complex_1_b,complex_1,contained,complex,b,1,Fwd,G,0.729,G,False,G,False
A1MJHGH55K3O0:3C8HJ7UOP8EOZAHV3YR91WTPMVOMZX,0,regular_2,regular_2,regular,NA,NA,2,Fwd,G,0.361,G,True,R,False
A1MJHGH55K3O0:3C8HJ7UOP8EOZAHV3YR91WTPMVOMZX,0,stopper_5_a,stopper_5,contained,stopper,a,5,None,G,0.385,G,False,G,False
A1MJHGH55K3O0:3C8HJ7UOP8EOZAHV3YR91WTPMVOMZX,0,complex_3_b,complex_3,contained,complex,b,3,Rev,G,0.369,G,True,R,False
A1MJHGH55K3O0:3C8HJ7UOP8EOZAHV3YR91WTPMVOMZX,0,regular_3,regular_3,regular,NA,NA,3,None,R,0.314,R,False,R,False
A1MJHGH55K3O0:3C8HJ7UOP8EOZAHV3YR91WTPMVOMZX,0,size_6_c,size_6,contained,size,c,6,Rev,G,0.409,G,True,R,False
A1MJHGH55K3O0:3C8HJ7UOP8EOZAHV3YR91WTPMVOMZX,0,size_1_c,size_1,contained,size,c,1,Fwd,G,0.201,G,True,R,False
A1MJHGH55K3O0:3C8HJ7UOP8EOZAHV3YR91WTPMVOMZX,0,regular_16,regular_16,regular,NA,NA,16,Fwd,G,0.568,G,True,R,False
A1MJHGH55K3O0:3C8HJ7UOP8EOZAHV3YR91WTPMVOMZX,0,regular_7,regular_7,regular,NA,NA,7,Fwd,G,0.105,G,False,G,False
A1MJHGH55K3O0:3C8HJ7UOP8EOZAHV3YR91WTPMVOMZX,0,porous_3_a,porous_3,contained,porous,a,3,Rev,R,0.122,G,True,G,False
A1MJHGH55K3O0:3C8HJ7UOP8EOZAHV3YR91WTPMVOMZX,0,regular_0,regular_0,regular,NA,NA,0,None,G,0.297,R,True,R,False
A1MJHGH55K3O0:3C8HJ7UOP8EOZAHV3YR91WTPMVOMZX,0,regular_8,regular_8,regular,NA,NA,8,Fwd,G,0.529,R,False,G,False
A1MJHGH55K3O0:3C8HJ7UOP8EOZAHV3YR91WTPMVOMZX,0,porous_1_a,porous_1,contained,porous,a,1,Fwd,G,0.489,G,True,R,False
A1MJHGH55K3O0:3C8HJ7UOP8EOZAHV3YR91WTPMVOMZX,0,regular_4,regular_4,regular,NA,NA,4,Fwd,R,0.529,R,False,R,False
A1MJHGH55K3O0:3C8HJ7UOP8EOZAHV3YR91WTPMVOMZX,0,porous_4_a,porous_4,contained,porous,a,4,Fwd,G,0.224,G,True,R,False
A1MJHGH55K3O0:3C8HJ7UOP8EOZAHV3YR91WTPMVOMZX,0,regular_14,regular_14,regular,NA,NA,14,Fwd,R,0.465,G,True,G,False
A1MJHGH55K3O0:3C8HJ7UOP8EOZAHV3YR91WTPMVOMZX,0,regular_11,regular_11,regular,NA,NA,11,Fwd,R,0.377,R,True,G,False
A1MJHGH55K3O0:3C8HJ7UOP8EOZAHV3YR91WTPMVOMZX,0,regular_1,regular_1,regular,NA,NA,1,Fwd,G,0.09,G,True,R,False
A1MJHGH55K3O0:3C8HJ7UOP8EOZAHV3YR91WTPMVOMZX,0,stopper_3_a,stopper_3,contained,stopper,a,3,Rev,G,0.281,G,True,R,False
A1MJHGH55K3O0:3C8HJ7UOP8EOZAHV3YR91WTPMVOMZX,0,regular_22,regular_22,regular,NA,NA,22,Fwd,R,0.553,G,True,G,False
A1MJHGH55K3O0:3C8HJ7UOP8EOZAHV3YR91WTPMVOMZX,0,stopper_1_a,stopper_1,contained,stopper,a,1,Fwd,G,0.353,G,False,G,False
A1MJHGH55K3O0:3C8HJ7UOP8EOZAHV3YR91WTPMVOMZX,0,complex_4_b,complex_4,contained,complex,b,4,Fwd,G,0.362,G,False,G,False
A1MJHGH55K3O0:3C8HJ7UOP8EOZAHV3YR91WTPMVOMZX,0,regular_19,regular_19,regular,NA,NA,19,Fwd,R,0.529,G,True,G,False
A1MJHGH55K3O0:3C8HJ7UOP8EOZAHV3YR91WTPMVOMZX,0,complex_2_b,complex_2,contained,complex,b,2,None,G,1.193,G,False,G,False
A1MJHGH55K3O0:3C8HJ7UOP8EOZAHV3YR91WTPMVOMZX,0,size_3_c,size_3,contained,size,c,3,Rev,G,0.145,G,True,R,False
A1MJHGH55K3O0:3C8HJ7UOP8EOZAHV3YR91WTPMVOMZX,0,porous_5_a,porous_5,contained,porous,a,5,None,G,0.426,G,True,R,False
A1MJHGH55K3O0:3C8HJ7UOP8EOZAHV3YR91WTPMVOMZX,0,size_5_c,size_5,contained,size,c,5,None,G,0.37,G,False,G,False
A1MJHGH55K3O0:3C8HJ7UOP8EOZAHV3YR91WTPMVOMZX,0,stopper_4_a,stopper_4,contained,stopper,a,4,Fwd,G,0.408,G,False,G,False
A1OBB3PWYWK9KK:3RKNTXVS3NI7UCKHL2BEY9LGRJE4A1,2,regular_1,regular_1,regular,NA,NA,1,None,R,0.943,G,False,R,False
A1OBB3PWYWK9KK:3RKNTXVS3NI7UCKHL2BEY9LGRJE4A1,2,complex_4_b,complex_4,contained,complex,b,4,Rev,G,1.3,G,True,R,False
A1OBB3PWYWK9KK:3RKNTXVS3NI7UCKHL2BEY9LGRJE4A1,2,size_3_c,size_3,contained,size,c,3,None,G,0.706,G,False,G,False
A1OBB3PWYWK9KK:3RKNTXVS3NI7UCKHL2BEY9LGRJE4A1,2,regular_7,regular_7,regular,NA,NA,7,None,G,0.445,G,True,R,False
A1OBB3PWYWK9KK:3RKNTXVS3NI7UCKHL2BEY9LGRJE4A1,2,regular_16,regular_16,regular,NA,NA,16,None,R,0.904,G,False,R,False
A1OBB3PWYWK9KK:3RKNTXVS3NI7UCKHL2BEY9LGRJE4A1,2,regular_23,regular_23,regular,NA,NA,23,Fwd,R,0.638,R,True,G,False
A1OBB3PWYWK9KK:3RKNTXVS3NI7UCKHL2BEY9LGRJE4A1,2,regular_21,regular_21,regular,NA,NA,21,Fwd,R,1.177,R,True,G,False
A1OBB3PWYWK9KK:3RKNTXVS3NI7UCKHL2BEY9LGRJE4A1,2,complex_2_b,complex_2,contained,complex,b,2,Fwd,G,0.423,G,True,R,False
A1OBB3PWYWK9KK:3RKNTXVS3NI7UCKHL2BEY9LGRJE4A1,2,regular_22,regular_22,regular,NA,NA,22,None,G,0.566,G,True,R,False
A1OBB3PWYWK9KK:3RKNTXVS3NI7UCKHL2BEY9LGRJE4A1,2,size_1_c,size_1,contained,size,c,1,Rev,G,0.363,G,True,R,False
A1OBB3PWYWK9KK:3RKNTXVS3NI7UCKHL2BEY9LGRJE4A1,2,size_4_c,size_4,contained,size,c,4,Rev,G,0.376,G,False,G,False
A1OBB3PWYWK9KK:3RKNTXVS3NI7UCKHL2BEY9LGRJE4A1,2,regular_12,regular_12,regular,NA,NA,12,Fwd,R,0.549,G,True,G,False
A1OBB3PWYWK9KK:3RKNTXVS3NI7UCKHL2BEY9LGRJE4A1,2,regular_2,regular_2,regular,NA,NA,2,Fwd,G,0.888,G,False,G,False
A1OBB3PWYWK9KK:3RKNTXVS3NI7UCKHL2BEY9LGRJE4A1,2,complex_1_b,complex_1,contained,complex,b,1,Rev,G,0.77,G,True,R,False
A1OBB3PWYWK9KK:3RKNTXVS3NI7UCKHL2BEY9LGRJE4A1,2,porous_3_a,porous_3,contained,porous,a,3,None,G,0.569,G,True,R,False
A1OBB3PWYWK9KK:3RKNTXVS3NI7UCKHL2BEY9LGRJE4A1,2,regular_17,regular_17,regular,NA,NA,17,Fwd,G,0.577,G,False,G,False
A1OBB3PWYWK9KK:3RKNTXVS3NI7UCKHL2BEY9LGRJE4A1,2,regular_14,regular_14,regular,NA,NA,14,Fwd,G,0.558,G,False,G,False
A1OBB3PWYWK9KK:3RKNTXVS3NI7UCKHL2BEY9LGRJE4A1,2,size_5_c,size_5,contained,size,c,5,Fwd,G,0.482,G,True,R,False
A1OBB3PWYWK9KK:3RKNTXVS3NI7UCKHL2BEY9LGRJE4A1,2,regular_0,regular_0,regular,NA,NA,0,Fwd,G,0.725,R,False,G,False
A1OBB3PWYWK9KK:3RKNTXVS3NI7UCKHL2BEY9LGRJE4A1,2,regular_3,regular_3,regular,NA,NA,3,Fwd,R,0.466,R,True,G,False
A1OBB3PWYWK9KK:3RKNTXVS3NI7UCKHL2BEY9LGRJE4A1,2,stopper_2_a,stopper_2,contained,stopper,a,2,Fwd,G,0.293,G,False,G,False
A1OBB3PWYWK9KK:3RKNTXVS3NI7UCKHL2BEY9LGRJE4A1,2,regular_6,regular_6,regular,NA,NA,6,Fwd,G,0.437,G,False,G,False
A1OBB3PWYWK9KK:3RKNTXVS3NI7UCKHL2BEY9LGRJE4A1,2,complex_3_b,complex_3,contained,complex,b,3,None,G,0.219,G,True,R,False
A1OBB3PWYWK9KK:3RKNTXVS3NI7UCKHL2BEY9LGRJE4A1,2,complex_5_b,complex_5,contained,complex,b,5,Fwd,G,0.085,G,False,G,False
A1OBB3PWYWK9KK:3RKNTXVS3NI7UCKHL2BEY9LGRJE4A1,2,stopper_1_a,stopper_1,contained,stopper,a,1,Rev,R,0.056,G,False,R,False
A1OBB3PWYWK9KK:3RKNTXVS3NI7UCKHL2BEY9LGRJE4A1,2,stopper_6_a,stopper_6,contained,stopper,a,6,None,G,0.44,G,True,R,False
A1OBB3PWYWK9KK:3RKNTXVS3NI7UCKHL2BEY9LGRJE4A1,2,porous_2_a,porous_2,contained,porous,a,2,Fwd,G,0.161,G,False,G,False
A1OBB3PWYWK9KK:3RKNTXVS3NI7UCKHL2BEY9LGRJE4A1,2,regular_15,regular_15,regular,NA,NA,15,Fwd,R,0.122,G,False,R,False
A1OBB3PWYWK9KK:3RKNTXVS3NI7UCKHL2BEY9LGRJE4A1,2,stopper_4_a,stopper_4,contained,stopper,a,4,Rev,G,0.345,G,True,R,False
A1OBB3PWYWK9KK:3RKNTXVS3NI7UCKHL2BEY9LGRJE4A1,2,regular_8,regular_8,regular,NA,NA,8,Fwd,R,0.36,R,False,R,False
A1OBB3PWYWK9KK:3RKNTXVS3NI7UCKHL2BEY9LGRJE4A1,2,stopper_3_a,stopper_3,contained,stopper,a,3,None,G,0.319,G,False,G,False
A1OBB3PWYWK9KK:3RKNTXVS3NI7UCKHL2BEY9LGRJE4A1,2,regular_10,regular_10,regular,NA,NA,10,None,R,0.175,R,True,G,False
A1OBB3PWYWK9KK:3RKNTXVS3NI7UCKHL2BEY9LGRJE4A1,2,porous_1_a,porous_1,contained,porous,a,1,Rev,G,0.08,G,True,R,False
A1OBB3PWYWK9KK:3RKNTXVS3NI7UCKHL2BEY9LGRJE4A1,2,regular_13,regular_13,regular,NA,NA,13,None,R,0.17,G,False,R,False
A1OBB3PWYWK9KK:3RKNTXVS3NI7UCKHL2BEY9LGRJE4A1,2,regular_5,regular_5,regular,NA,NA,5,Fwd,R,0.628,R,False,R,False
A1OBB3PWYWK9KK:3RKNTXVS3NI7UCKHL2BEY9LGRJE4A1,2,stopper_5_a,stopper_5,contained,stopper,a,5,Fwd,G,0.151,G,False,G,False
A1OBB3PWYWK9KK:3RKNTXVS3NI7UCKHL2BEY9LGRJE4A1,2,regular_11,regular_11,regular,NA,NA,11,Fwd,G,0.19,R,True,R,False
A1OBB3PWYWK9KK:3RKNTXVS3NI7UCKHL2BEY9LGRJE4A1,2,regular_4,regular_4,regular,NA,NA,4,None,G,0.124,R,False,G,False
A1OBB3PWYWK9KK:3RKNTXVS3NI7UCKHL2BEY9LGRJE4A1,2,regular_20,regular_20,regular,NA,NA,20,Fwd,G,0.06,G,True,R,False
A1OBB3PWYWK9KK:3RKNTXVS3NI7UCKHL2BEY9LGRJE4A1,2,porous_6_a,porous_6,contained,porous,a,6,None,G,0.242,G,False,G,False
A1OBB3PWYWK9KK:3RKNTXVS3NI7UCKHL2BEY9LGRJE4A1,2,porous_4_a,porous_4,contained,porous,a,4,Rev,R,0.143,G,True,G,False
A1OBB3PWYWK9KK:3RKNTXVS3NI7UCKHL2BEY9LGRJE4A1,2,regular_19,regular_19,regular,NA,NA,19,None,G,0.484,G,False,G,False
A1OBB3PWYWK9KK:3RKNTXVS3NI7UCKHL2BEY9LGRJE4A1,2,size_2_c,size_2,contained,size,c,2,Fwd,G,0.004,G,True,R,False
A1OBB3PWYWK9KK:3RKNTXVS3NI7UCKHL2BEY9LGRJE4A1,2,regular_9,regular_9,regular,NA,NA,9,Fwd,G,0.072,R,False,G,False
A1OBB3PWYWK9KK:3RKNTXVS3NI7UCKHL2BEY9LGRJE4A1,2,porous_5_a,porous_5,contained,porous,a,5,Fwd,G,0.399,G,True,R,False
A1OBB3PWYWK9KK:3RKNTXVS3NI7UCKHL2BEY9LGRJE4A1,2,complex_6_b,complex_6,contained,complex,b,6,None,G,0.606,G,True,R,False
A1OBB3PWYWK9KK:3RKNTXVS3NI7UCKHL2BEY9LGRJE4A1,2,size_6_c,size_6,contained,size,c,6,None,G,0.345,G,False,G,False
A1OBB3PWYWK9KK:3RKNTXVS3NI7UCKHL2BEY9LGRJE4A1,2,regular_18,regular_18,regular,NA,NA,18,Fwd,G,0.616,G,True,R,False
A1PTH9KTRO06EG:3DQQ64TANH5QQI93KRZUJWT2AXSPW1,1,porous_2_a,porous_2,contained,porous,a,2,Rev,G,0.388,G,True,R,False
A1PTH9KTRO06EG:3DQQ64TANH5QQI93KRZUJWT2AXSPW1,1,complex_1_b,complex_1,contained,complex,b,1,None,R,1.38,G,True,G,False
A1PTH9KTRO06EG:3DQQ64TANH5QQI93KRZUJWT2AXSPW1,1,porous_4_a,porous_4,contained,porous,a,4,None,G,0.824,G,False,G,False
A1PTH9KTRO06EG:3DQQ64TANH5QQI93KRZUJWT2AXSPW1,1,regular_12,regular_12,regular,NA,NA,12,Fwd,R,0.87,G,True,G,False
A1PTH9KTRO06EG:3DQQ64TANH5QQI93KRZUJWT2AXSPW1,1,regular_19,regular_19,regular,NA,NA,19,Fwd,R,0.739,G,True,G,False
A1PTH9KTRO06EG:3DQQ64TANH5QQI93KRZUJWT2AXSPW1,1,regular_23,regular_23,regular,NA,NA,23,None,R,0.452,R,True,G,False
A1PTH9KTRO06EG:3DQQ64TANH5QQI93KRZUJWT2AXSPW1,1,regular_16,regular_16,regular,NA,NA,16,Fwd,G,0.421,G,False,G,False
A1PTH9KTRO06EG:3DQQ64TANH5QQI93KRZUJWT2AXSPW1,1,size_6_c,size_6,contained,size,c,6,Fwd,G,0.428,G,False,G,False
A1PTH9KTRO06EG:3DQQ64TANH5QQI93KRZUJWT2AXSPW1,1,regular_13,regular_13,regular,NA,NA,13,Fwd,G,0.923,G,True,R,False
A1PTH9KTRO06EG:3DQQ64TANH5QQI93KRZUJWT2AXSPW1,1,regular_17,regular_17,regular,NA,NA,17,None,R,0.42,G,False,R,False
A1PTH9KTRO06EG:3DQQ64TANH5QQI93KRZUJWT2AXSPW1,1,size_5_c,size_5,contained,size,c,5,Rev,G,0.842,G,True,R,False
A1PTH9KTRO06EG:3DQQ64TANH5QQI93KRZUJWT2AXSPW1,1,regular_5,regular_5,regular,NA,NA,5,None,G,0.785,R,True,R,False
A1PTH9KTRO06EG:3DQQ64TANH5QQI93KRZUJWT2AXSPW1,1,stopper_5_a,stopper_5,contained,stopper,a,5,Rev,G,0.682,G,True,R,False
A1PTH9KTRO06EG:3DQQ64TANH5QQI93KRZUJWT2AXSPW1,1,stopper_6_a,stopper_6,contained,stopper,a,6,Fwd,G,0.323,G,False,G,False
A1PTH9KTRO06EG:3DQQ64TANH5QQI93KRZUJWT2AXSPW1,1,regular_8,regular_8,regular,NA,NA,8,None,R,0.435,R,True,G,False
A1PTH9KTRO06EG:3DQQ64TANH5QQI93KRZUJWT2AXSPW1,1,porous_6_a,porous_6,contained,porous,a,6,Fwd,G,0.263,G,False,G,False
A1PTH9KTRO06EG:3DQQ64TANH5QQI93KRZUJWT2AXSPW1,1,regular_2,regular_2,regular,NA,NA,2,None,G,0.426,G,False,G,False
A1PTH9KTRO06EG:3DQQ64TANH5QQI93KRZUJWT2AXSPW1,1,regular_9,regular_9,regular,NA,NA,9,Fwd,R,0.402,R,False,R,False
A1PTH9KTRO06EG:3DQQ64TANH5QQI93KRZUJWT2AXSPW1,1,regular_20,regular_20,regular,NA,NA,20,None,G,0.165,G,True,R,False
A1PTH9KTRO06EG:3DQQ64TANH5QQI93KRZUJWT2AXSPW1,1,regular_1,regular_1,regular,NA,NA,1,Fwd,R,0.222,G,True,G,False
A1PTH9KTRO06EG:3DQQ64TANH5QQI93KRZUJWT2AXSPW1,1,regular_4,regular_4,regular,NA,NA,4,Fwd,G,0.153,R,True,R,False
A1PTH9KTRO06EG:3DQQ64TANH5QQI93KRZUJWT2AXSPW1,1,complex_3_b,complex_3,contained,complex,b,3,Fwd,G,0.213,G,False,G,False
A1PTH9KTRO06EG:3DQQ64TANH5QQI93KRZUJWT2AXSPW1,1,stopper_1_a,stopper_1,contained,stopper,a,1,None,G,0.124,G,False,G,False
A1PTH9KTRO06EG:3DQQ64TANH5QQI93KRZUJWT2AXSPW1,1,regular_3,regular_3,regular,NA,NA,3,Fwd,G,0.259,R,False,G,False
A1PTH9KTRO06EG:3DQQ64TANH5QQI93KRZUJWT2AXSPW1,1,regular_15,regular_15,regular,NA,NA,15,Fwd,R,0.059,G,True,G,False
A1PTH9KTRO06EG:3DQQ64TANH5QQI93KRZUJWT2AXSPW1,1,size_1_c,size_1,contained,size,c,1,None,G,0.31,G,True,R,False
A1PTH9KTRO06EG:3DQQ64TANH5QQI93KRZUJWT2AXSPW1,1,porous_5_a,porous_5,contained,porous,a,5,Rev,G,0.205,G,False,G,False
A1PTH9KTRO06EG:3DQQ64TANH5QQI93KRZUJWT2AXSPW1,1,regular_22,regular_22,regular,NA,NA,22,Fwd,R,0.26,G,True,G,False
A1PTH9KTRO06EG:3DQQ64TANH5QQI93KRZUJWT2AXSPW1,1,regular_6,regular_6,regular,NA,NA,6,Fwd,R,0.105,G,False,R,False
A1PTH9KTRO06EG:3DQQ64TANH5QQI93KRZUJWT2AXSPW1,1,regular_10,regular_10,regular,NA,NA,10,Fwd,R,0.071,R,True,G,False
A1PTH9KTRO06EG:3DQQ64TANH5QQI93KRZUJWT2AXSPW1,1,regular_11,regular_11,regular,NA,NA,11,None,G,0.321,R,True,R,False
A1PTH9KTRO06EG:3DQQ64TANH5QQI93KRZUJWT2AXSPW1,1,size_3_c,size_3,contained,size,c,3,Fwd,G,0.18,G,True,R,False
A1PTH9KTRO06EG:3DQQ64TANH5QQI93KRZUJWT2AXSPW1,1,complex_2_b,complex_2,contained,complex,b,2,Rev,G,0.762,G,True,R,False
A1PTH9KTRO06EG:3DQQ64TANH5QQI93KRZUJWT2AXSPW1,1,complex_4_b,complex_4,contained,complex,b,4,None,G,0.098,G,True,R,False
A1PTH9KTRO06EG:3DQQ64TANH5QQI93KRZUJWT2AXSPW1,1,porous_1_a,porous_1,contained,porous,a,1,None,G,0.045,G,False,G,False
A1PTH9KTRO06EG:3DQQ64TANH5QQI93KRZUJWT2AXSPW1,1,regular_21,regular_21,regular,NA,NA,21,Fwd,G,0.058,R,True,R,False
A1PTH9KTRO06EG:3DQQ64TANH5QQI93KRZUJWT2AXSPW1,1,complex_6_b,complex_6,contained,complex,b,6,Fwd,R,0.222,G,False,R,False
A1PTH9KTRO06EG:3DQQ64TANH5QQI93KRZUJWT2AXSPW1,1,porous_3_a,porous_3,contained,porous,a,3,Fwd,G,0.791,G,False,G,False
A1PTH9KTRO06EG:3DQQ64TANH5QQI93KRZUJWT2AXSPW1,1,complex_5_b,complex_5,contained,complex,b,5,Rev,G,0.73,G,True,R,False
A1PTH9KTRO06EG:3DQQ64TANH5QQI93KRZUJWT2AXSPW1,1,stopper_3_a,stopper_3,contained,stopper,a,3,Fwd,G,0.666,G,True,R,False
A1PTH9KTRO06EG:3DQQ64TANH5QQI93KRZUJWT2AXSPW1,1,size_4_c,size_4,contained,size,c,4,None,G,0.126,G,True,R,False
A1PTH9KTRO06EG:3DQQ64TANH5QQI93KRZUJWT2AXSPW1,1,regular_18,regular_18,regular,NA,NA,18,Fwd,G,0.244,G,True,R,False
A1PTH9KTRO06EG:3DQQ64TANH5QQI93KRZUJWT2AXSPW1,1,stopper_4_a,stopper_4,contained,stopper,a,4,None,G,0.093,G,False,G,False
A1PTH9KTRO06EG:3DQQ64TANH5QQI93KRZUJWT2AXSPW1,1,size_2_c,size_2,contained,size,c,2,Rev,G,0.091,G,True,R,False
A1PTH9KTRO06EG:3DQQ64TANH5QQI93KRZUJWT2AXSPW1,1,regular_0,regular_0,regular,NA,NA,0,Fwd,R,0.606,R,False,R,False
A1PTH9KTRO06EG:3DQQ64TANH5QQI93KRZUJWT2AXSPW1,1,regular_7,regular_7,regular,NA,NA,7,Fwd,G,0.051,G,False,G,False
A1PTH9KTRO06EG:3DQQ64TANH5QQI93KRZUJWT2AXSPW1,1,stopper_2_a,stopper_2,contained,stopper,a,2,Rev,R,0.004,G,True,G,False
A1PTH9KTRO06EG:3DQQ64TANH5QQI93KRZUJWT2AXSPW1,1,regular_14,regular_14,regular,NA,NA,14,None,G,0.348,G,True,R,False
A1QEYUUDBXH8RQ:3KAKFY4PGVM1IYKBXCY852HTQQ2I3B,1,size_3_c,size_3,contained,size,c,3,Fwd,G,0.52,G,True,R,False
A1QEYUUDBXH8RQ:3KAKFY4PGVM1IYKBXCY852HTQQ2I3B,1,size_2_c,size_2,contained,size,c,2,Rev,G,0.629,G,False,G,False
A1QEYUUDBXH8RQ:3KAKFY4PGVM1IYKBXCY852HTQQ2I3B,1,porous_3_a,porous_3,contained,porous,a,3,Fwd,G,0.412,G,True,R,False
A1QEYUUDBXH8RQ:3KAKFY4PGVM1IYKBXCY852HTQQ2I3B,1,regular_6,regular_6,regular,NA,NA,6,Fwd,R,0.126,G,False,R,False
A1QEYUUDBXH8RQ:3KAKFY4PGVM1IYKBXCY852HTQQ2I3B,1,porous_1_a,porous_1,contained,porous,a,1,None,G,0.51,G,True,R,False
A1QEYUUDBXH8RQ:3KAKFY4PGVM1IYKBXCY852HTQQ2I3B,1,stopper_4_a,stopper_4,contained,stopper,a,4,None,G,0.594,G,False,G,False
A1QEYUUDBXH8RQ:3KAKFY4PGVM1IYKBXCY852HTQQ2I3B,1,regular_23,regular_23,regular,NA,NA,23,None,R,0.687,R,True,G,False
A1QEYUUDBXH8RQ:3KAKFY4PGVM1IYKBXCY852HTQQ2I3B,1,regular_19,regular_19,regular,NA,NA,19,Fwd,R,0.387,G,True,G,False
A1QEYUUDBXH8RQ:3KAKFY4PGVM1IYKBXCY852HTQQ2I3B,1,complex_4_b,complex_4,contained,complex,b,4,None,G,0.432,G,True,R,False
A1QEYUUDBXH8RQ:3KAKFY4PGVM1IYKBXCY852HTQQ2I3B,1,regular_2,regular_2,regular,NA,NA,2,None,R,0.613,G,True,G,False
A1QEYUUDBXH8RQ:3KAKFY4PGVM1IYKBXCY852HTQQ2I3B,1,stopper_6_a,stopper_6,contained,stopper,a,6,Fwd,G,0.184,G,False,G,False
A1QEYUUDBXH8RQ:3KAKFY4PGVM1IYKBXCY852HTQQ2I3B,1,regular_8,regular_8,regular,NA,NA,8,None,R,0.618,R,False,R,False
A1QEYUUDBXH8RQ:3KAKFY4PGVM1IYKBXCY852HTQQ2I3B,1,size_1_c,size_1,contained,size,c,1,None,G,0.474,G,True,R,False
A1QEYUUDBXH8RQ:3KAKFY4PGVM1IYKBXCY852HTQQ2I3B,1,regular_15,regular_15,regular,NA,NA,15,Fwd,R,0.428,G,True,G,False
A1QEYUUDBXH8RQ:3KAKFY4PGVM1IYKBXCY852HTQQ2I3B,1,regular_10,regular_10,regular,NA,NA,10,Fwd,R,0.581,R,True,G,False
A1QEYUUDBXH8RQ:3KAKFY4PGVM1IYKBXCY852HTQQ2I3B,1,regular_7,regular_7,regular,NA,NA,7,Fwd,G,0.872,G,True,R,False
A1QEYUUDBXH8RQ:3KAKFY4PGVM1IYKBXCY852HTQQ2I3B,1,stopper_3_a,stopper_3,contained,stopper,a,3,Fwd,G,0.396,G,True,R,False
A1QEYUUDBXH8RQ:3KAKFY4PGVM1IYKBXCY852HTQQ2I3B,1,size_5_c,size_5,contained,size,c,5,Rev,G,0.403,G,True,R,False
A1QEYUUDBXH8RQ:3KAKFY4PGVM1IYKBXCY852HTQQ2I3B,1,regular_21,regular_21,regular,NA,NA,21,Fwd,G,1.039,R,False,G,False
A1QEYUUDBXH8RQ:3KAKFY4PGVM1IYKBXCY852HTQQ2I3B,1,stopper_5_a,stopper_5,contained,stopper,a,5,Rev,R,0.27,G,False,R,False
A1QEYUUDBXH8RQ:3KAKFY4PGVM1IYKBXCY852HTQQ2I3B,1,stopper_1_a,stopper_1,contained,stopper,a,1,None,G,0.437,G,True,R,False
A1QEYUUDBXH8RQ:3KAKFY4PGVM1IYKBXCY852HTQQ2I3B,1,regular_12,regular_12,regular,NA,NA,12,Fwd,G,0.551,G,False,G,False
A1QEYUUDBXH8RQ:3KAKFY4PGVM1IYKBXCY852HTQQ2I3B,1,regular_20,regular_20,regular,NA,NA,20,None,G,1.021,G,True,R,False
A1QEYUUDBXH8RQ:3KAKFY4PGVM1IYKBXCY852HTQQ2I3B,1,regular_3,regular_3,regular,NA,NA,3,Fwd,R,0.351,R,False,R,False
A1QEYUUDBXH8RQ:3KAKFY4PGVM1IYKBXCY852HTQQ2I3B,1,regular_22,regular_22,regular,NA,NA,22,Fwd,R,0.157,G,True,G,False
A1QEYUUDBXH8RQ:3KAKFY4PGVM1IYKBXCY852HTQQ2I3B,1,porous_5_a,porous_5,contained,porous,a,5,Rev,G,0.357,G,True,R,False
A1QEYUUDBXH8RQ:3KAKFY4PGVM1IYKBXCY852HTQQ2I3B,1,regular_14,regular_14,regular,NA,NA,14,None,R,0.663,G,True,G,False
A1QEYUUDBXH8RQ:3KAKFY4PGVM1IYKBXCY852HTQQ2I3B,1,regular_4,regular_4,regular,NA,NA,4,Fwd,G,0.306,R,True,R,False
A1QEYUUDBXH8RQ:3KAKFY4PGVM1IYKBXCY852HTQQ2I3B,1,complex_2_b,complex_2,contained,complex,b,2,Rev,G,0.535,G,True,R,False
A1QEYUUDBXH8RQ:3KAKFY4PGVM1IYKBXCY852HTQQ2I3B,1,porous_6_a,porous_6,contained,porous,a,6,Fwd,G,0.306,G,True,R,False
A1QEYUUDBXH8RQ:3KAKFY4PGVM1IYKBXCY852HTQQ2I3B,1,complex_5_b,complex_5,contained,complex,b,5,Rev,G,0.302,G,False,G,False
A1QEYUUDBXH8RQ:3KAKFY4PGVM1IYKBXCY852HTQQ2I3B,1,regular_13,regular_13,regular,NA,NA,13,Fwd,R,0.518,G,False,R,False
A1QEYUUDBXH8RQ:3KAKFY4PGVM1IYKBXCY852HTQQ2I3B,1,complex_1_b,complex_1,contained,complex,b,1,None,G,0.569,G,True,R,False
A1QEYUUDBXH8RQ:3KAKFY4PGVM1IYKBXCY852HTQQ2I3B,1,regular_16,regular_16,regular,NA,NA,16,Fwd,G,0.16,G,False,G,False
A1QEYUUDBXH8RQ:3KAKFY4PGVM1IYKBXCY852HTQQ2I3B,1,regular_18,regular_18,regular,NA,NA,18,Fwd,G,0.32,G,True,R,False
A1QEYUUDBXH8RQ:3KAKFY4PGVM1IYKBXCY852HTQQ2I3B,1,regular_9,regular_9,regular,NA,NA,9,Fwd,R,0.341,R,False,R,False
A1QEYUUDBXH8RQ:3KAKFY4PGVM1IYKBXCY852HTQQ2I3B,1,porous_2_a,porous_2,contained,porous,a,2,Rev,G,0.37,G,False,G,False
A1QEYUUDBXH8RQ:3KAKFY4PGVM1IYKBXCY852HTQQ2I3B,1,complex_3_b,complex_3,contained,complex,b,3,Fwd,G,0.372,G,False,G,False
A1QEYUUDBXH8RQ:3KAKFY4PGVM1IYKBXCY852HTQQ2I3B,1,regular_17,regular_17,regular,NA,NA,17,None,R,0.917,G,True,G,False
A1QEYUUDBXH8RQ:3KAKFY4PGVM1IYKBXCY852HTQQ2I3B,1,regular_0,regular_0,regular,NA,NA,0,Fwd,R,0.621,R,True,G,False
A1QEYUUDBXH8RQ:3KAKFY4PGVM1IYKBXCY852HTQQ2I3B,1,size_6_c,size_6,contained,size,c,6,Fwd,G,0.373,G,True,R,False
A1QEYUUDBXH8RQ:3KAKFY4PGVM1IYKBXCY852HTQQ2I3B,1,stopper_2_a,stopper_2,contained,stopper,a,2,Rev,G,0.373,G,True,R,False
A1QEYUUDBXH8RQ:3KAKFY4PGVM1IYKBXCY852HTQQ2I3B,1,complex_6_b,complex_6,contained,complex,b,6,Fwd,G,0.277,G,False,G,False
A1QEYUUDBXH8RQ:3KAKFY4PGVM1IYKBXCY852HTQQ2I3B,1,regular_5,regular_5,regular,NA,NA,5,None,R,0.849,R,True,G,False
A1QEYUUDBXH8RQ:3KAKFY4PGVM1IYKBXCY852HTQQ2I3B,1,porous_4_a,porous_4,contained,porous,a,4,None,G,0.337,G,True,R,False
A1QEYUUDBXH8RQ:3KAKFY4PGVM1IYKBXCY852HTQQ2I3B,1,size_4_c,size_4,contained,size,c,4,None,G,0.491,G,False,G,False
A1QEYUUDBXH8RQ:3KAKFY4PGVM1IYKBXCY852HTQQ2I3B,1,regular_1,regular_1,regular,NA,NA,1,Fwd,G,1.236,G,True,R,False
A1QEYUUDBXH8RQ:3KAKFY4PGVM1IYKBXCY852HTQQ2I3B,1,regular_11,regular_11,regular,NA,NA,11,None,R,0.539,R,True,G,False
A1RJ2LORL5PJHS:3AAJC4I4FHCYY2BA01EHL418I16ZJJ,0,complex_1_b,complex_1,contained,complex,b,1,Fwd,R,0.056,G,False,R,False
A1RJ2LORL5PJHS:3AAJC4I4FHCYY2BA01EHL418I16ZJJ,0,complex_6_b,complex_6,contained,complex,b,6,Rev,G,1.11,G,True,R,False
A1RJ2LORL5PJHS:3AAJC4I4FHCYY2BA01EHL418I16ZJJ,0,porous_2_a,porous_2,contained,porous,a,2,None,G,0.742,G,False,G,False
A1RJ2LORL5PJHS:3AAJC4I4FHCYY2BA01EHL418I16ZJJ,0,regular_0,regular_0,regular,NA,NA,0,None,G,0.585,R,True,R,False
A1RJ2LORL5PJHS:3AAJC4I4FHCYY2BA01EHL418I16ZJJ,0,regular_5,regular_5,regular,NA,NA,5,Fwd,G,0.665,R,False,G,False
A1RJ2LORL5PJHS:3AAJC4I4FHCYY2BA01EHL418I16ZJJ,0,size_2_c,size_2,contained,size,c,2,None,G,0.425,G,False,G,False
A1RJ2LORL5PJHS:3AAJC4I4FHCYY2BA01EHL418I16ZJJ,0,stopper_3_a,stopper_3,contained,stopper,a,3,Rev,R,0.008,G,False,R,False
A1RJ2LORL5PJHS:3AAJC4I4FHCYY2BA01EHL418I16ZJJ,0,stopper_5_a,stopper_5,contained,stopper,a,5,None,G,0.567,G,True,R,False
A1RJ2LORL5PJHS:3AAJC4I4FHCYY2BA01EHL418I16ZJJ,0,size_5_c,size_5,contained,size,c,5,None,G,0.489,G,False,G,False
A1RJ2LORL5PJHS:3AAJC4I4FHCYY2BA01EHL418I16ZJJ,0,regular_1,regular_1,regular,NA,NA,1,Fwd,G,0.233,G,False,G,False
A1RJ2LORL5PJHS:3AAJC4I4FHCYY2BA01EHL418I16ZJJ,0,regular_4,regular_4,regular,NA,NA,4,Fwd,R,1.014,R,True,G,False
A1RJ2LORL5PJHS:3AAJC4I4FHCYY2BA01EHL418I16ZJJ,0,stopper_4_a,stopper_4,contained,stopper,a,4,Fwd,G,1.098,G,False,G,False
A1RJ2LORL5PJHS:3AAJC4I4FHCYY2BA01EHL418I16ZJJ,0,size_4_c,size_4,contained,size,c,4,Fwd,G,0.266,G,True,R,False
A1RJ2LORL5PJHS:3AAJC4I4FHCYY2BA01EHL418I16ZJJ,0,porous_4_a,porous_4,contained,porous,a,4,Fwd,G,0.025,G,True,R,False
A1RJ2LORL5PJHS:3AAJC4I4FHCYY2BA01EHL418I16ZJJ,0,porous_1_a,porous_1,contained,porous,a,1,Fwd,G,0.633,G,True,R,False
A1RJ2LORL5PJHS:3AAJC4I4FHCYY2BA01EHL418I16ZJJ,0,regular_22,regular_22,regular,NA,NA,22,Fwd,G,0.056,G,False,G,False
A1RJ2LORL5PJHS:3AAJC4I4FHCYY2BA01EHL418I16ZJJ,0,regular_3,regular_3,regular,NA,NA,3,None,R,0.728,R,True,G,False
A1RJ2LORL5PJHS:3AAJC4I4FHCYY2BA01EHL418I16ZJJ,0,regular_19,regular_19,regular,NA,NA,19,Fwd,G,0.121,G,False,G,False
A1RJ2LORL5PJHS:3AAJC4I4FHCYY2BA01EHL418I16ZJJ,0,complex_5_b,complex_5,contained,complex,b,5,None,G,0.6,G,False,G,False
A1RJ2LORL5PJHS:3AAJC4I4FHCYY2BA01EHL418I16ZJJ,0,regular_8,regular_8,regular,NA,NA,8,Fwd,R,0.089,R,True,G,False
A1RJ2LORL5PJHS:3AAJC4I4FHCYY2BA01EHL418I16ZJJ,0,size_6_c,size_6,contained,size,c,6,Rev,G,0.186,G,False,G,False
A1RJ2LORL5PJHS:3AAJC4I4FHCYY2BA01EHL418I16ZJJ,0,regular_14,regular_14,regular,NA,NA,14,Fwd,G,0.025,G,False,G,False
A1RJ2LORL5PJHS:3AAJC4I4FHCYY2BA01EHL418I16ZJJ,0,complex_2_b,complex_2,contained,complex,b,2,None,G,0.697,G,False,G,False
A1RJ2LORL5PJHS:3AAJC4I4FHCYY2BA01EHL418I16ZJJ,0,stopper_1_a,stopper_1,contained,stopper,a,1,Fwd,G,0.137,G,False,G,False
A1RJ2LORL5PJHS:3AAJC4I4FHCYY2BA01EHL418I16ZJJ,0,regular_9,regular_9,regular,NA,NA,9,None,G,0.743,R,False,G,False
A1RJ2LORL5PJHS:3AAJC4I4FHCYY2BA01EHL418I16ZJJ,0,porous_3_a,porous_3,contained,porous,a,3,Rev,G,0.134,G,False,G,False
A1RJ2LORL5PJHS:3AAJC4I4FHCYY2BA01EHL418I16ZJJ,0,complex_3_b,complex_3,contained,complex,b,3,Rev,G,0.239,G,True,R,False
A1RJ2LORL5PJHS:3AAJC4I4FHCYY2BA01EHL418I16ZJJ,0,regular_23,regular_23,regular,NA,NA,23,Fwd,R,0.102,R,True,G,False
A1RJ2LORL5PJHS:3AAJC4I4FHCYY2BA01EHL418I16ZJJ,0,regular_2,regular_2,regular,NA,NA,2,Fwd,G,0.12,G,False,G,False
A1RJ2LORL5PJHS:3AAJC4I4FHCYY2BA01EHL418I16ZJJ,0,regular_13,regular_13,regular,NA,NA,13,Fwd,R,0.025,G,True,G,False
A1RJ2LORL5PJHS:3AAJC4I4FHCYY2BA01EHL418I16ZJJ,0,regular_15,regular_15,regular,NA,NA,15,None,G,0.282,G,False,G,False
A1RJ2LORL5PJHS:3AAJC4I4FHCYY2BA01EHL418I16ZJJ,0,stopper_2_a,stopper_2,contained,stopper,a,2,None,R,0.343,G,True,G,False
A1RJ2LORL5PJHS:3AAJC4I4FHCYY2BA01EHL418I16ZJJ,0,porous_5_a,porous_5,contained,porous,a,5,None,G,0.77,G,True,R,False
A1RJ2LORL5PJHS:3AAJC4I4FHCYY2BA01EHL418I16ZJJ,0,regular_6,regular_6,regular,NA,NA,6,None,R,0.313,G,True,G,False
A1RJ2LORL5PJHS:3AAJC4I4FHCYY2BA01EHL418I16ZJJ,0,porous_6_a,porous_6,contained,porous,a,6,Rev,G,0.755,G,False,G,False
A1RJ2LORL5PJHS:3AAJC4I4FHCYY2BA01EHL418I16ZJJ,0,regular_17,regular_17,regular,NA,NA,17,Fwd,G,0.823,G,False,G,False
A1RJ2LORL5PJHS:3AAJC4I4FHCYY2BA01EHL418I16ZJJ,0,regular_21,regular_21,regular,NA,NA,21,None,R,0.153,R,True,G,False
A1RJ2LORL5PJHS:3AAJC4I4FHCYY2BA01EHL418I16ZJJ,0,regular_18,regular_18,regular,NA,NA,18,None,G,0.665,G,True,R,False
A1RJ2LORL5PJHS:3AAJC4I4FHCYY2BA01EHL418I16ZJJ,0,regular_11,regular_11,regular,NA,NA,11,Fwd,R,0.28,R,True,G,False
A1RJ2LORL5PJHS:3AAJC4I4FHCYY2BA01EHL418I16ZJJ,0,regular_7,regular_7,regular,NA,NA,7,Fwd,G,0.104,G,False,G,False
A1RJ2LORL5PJHS:3AAJC4I4FHCYY2BA01EHL418I16ZJJ,0,size_3_c,size_3,contained,size,c,3,Rev,G,0.024,G,False,G,False
A1RJ2LORL5PJHS:3AAJC4I4FHCYY2BA01EHL418I16ZJJ,0,size_1_c,size_1,contained,size,c,1,Fwd,G,0.041,G,False,G,False
A1RJ2LORL5PJHS:3AAJC4I4FHCYY2BA01EHL418I16ZJJ,0,regular_16,regular_16,regular,NA,NA,16,Fwd,R,0.087,G,True,G,False
A1RJ2LORL5PJHS:3AAJC4I4FHCYY2BA01EHL418I16ZJJ,0,complex_4_b,complex_4,contained,complex,b,4,Fwd,R,0.009,G,True,G,False
A1RJ2LORL5PJHS:3AAJC4I4FHCYY2BA01EHL418I16ZJJ,0,regular_10,regular_10,regular,NA,NA,10,Fwd,G,0.089,R,False,G,False
A1RJ2LORL5PJHS:3AAJC4I4FHCYY2BA01EHL418I16ZJJ,0,stopper_6_a,stopper_6,contained,stopper,a,6,Rev,G,0.088,G,False,G,False
A1RJ2LORL5PJHS:3AAJC4I4FHCYY2BA01EHL418I16ZJJ,0,regular_20,regular_20,regular,NA,NA,20,Fwd,R,0.009,G,True,G,False
A1RJ2LORL5PJHS:3AAJC4I4FHCYY2BA01EHL418I16ZJJ,0,regular_12,regular_12,regular,NA,NA,12,None,R,0.345,G,True,G,False
A1W2AXHN5R2J91:30BXRYBRP5HYD1BF1ERPANRBO7LHWT,2,regular_4,regular_4,regular,NA,NA,4,None,G,1.295,R,False,G,False
A1W2AXHN5R2J91:30BXRYBRP5HYD1BF1ERPANRBO7LHWT,2,regular_5,regular_5,regular,NA,NA,5,Fwd,G,1.075,R,False,G,False
A1W2AXHN5R2J91:30BXRYBRP5HYD1BF1ERPANRBO7LHWT,2,porous_4_a,porous_4,contained,porous,a,4,Rev,G,0.389,G,True,R,False
A1W2AXHN5R2J91:30BXRYBRP5HYD1BF1ERPANRBO7LHWT,2,size_2_c,size_2,contained,size,c,2,Fwd,G,0.324,G,False,G,False
A1W2AXHN5R2J91:30BXRYBRP5HYD1BF1ERPANRBO7LHWT,2,complex_6_b,complex_6,contained,complex,b,6,None,G,1.085,G,False,G,False
A1W2AXHN5R2J91:30BXRYBRP5HYD1BF1ERPANRBO7LHWT,2,stopper_2_a,stopper_2,contained,stopper,a,2,Fwd,G,0.279,G,True,R,False
A1W2AXHN5R2J91:30BXRYBRP5HYD1BF1ERPANRBO7LHWT,2,regular_23,regular_23,regular,NA,NA,23,Fwd,R,0.379,R,True,G,False
A1W2AXHN5R2J91:30BXRYBRP5HYD1BF1ERPANRBO7LHWT,2,regular_3,regular_3,regular,NA,NA,3,Fwd,R,0.273,R,True,G,False
A1W2AXHN5R2J91:30BXRYBRP5HYD1BF1ERPANRBO7LHWT,2,stopper_5_a,stopper_5,contained,stopper,a,5,Fwd,G,0.207,G,False,G,False
A1W2AXHN5R2J91:30BXRYBRP5HYD1BF1ERPANRBO7LHWT,2,porous_2_a,porous_2,contained,porous,a,2,Fwd,G,0.158,G,False,G,False
A1W2AXHN5R2J91:30BXRYBRP5HYD1BF1ERPANRBO7LHWT,2,regular_9,regular_9,regular,NA,NA,9,Fwd,G,0.575,R,False,G,False
A1W2AXHN5R2J91:30BXRYBRP5HYD1BF1ERPANRBO7LHWT,2,stopper_1_a,stopper_1,contained,stopper,a,1,Rev,G,0.674,G,True,R,False
A1W2AXHN5R2J91:30BXRYBRP5HYD1BF1ERPANRBO7LHWT,2,porous_3_a,porous_3,contained,porous,a,3,None,G,0.178,G,True,R,False
A1W2AXHN5R2J91:30BXRYBRP5HYD1BF1ERPANRBO7LHWT,2,regular_7,regular_7,regular,NA,NA,7,None,G,0.502,G,False,G,False
A1W2AXHN5R2J91:30BXRYBRP5HYD1BF1ERPANRBO7LHWT,2,regular_8,regular_8,regular,NA,NA,8,Fwd,R,0.273,R,False,R,False
A1W2AXHN5R2J91:30BXRYBRP5HYD1BF1ERPANRBO7LHWT,2,size_1_c,size_1,contained,size,c,1,Rev,G,0.079,G,True,R,False
A1W2AXHN5R2J91:30BXRYBRP5HYD1BF1ERPANRBO7LHWT,2,regular_13,regular_13,regular,NA,NA,13,None,R,0.063,G,False,R,False
A1W2AXHN5R2J91:30BXRYBRP5HYD1BF1ERPANRBO7LHWT,2,porous_6_a,porous_6,contained,porous,a,6,None,G,0.262,G,False,G,False
A1W2AXHN5R2J91:30BXRYBRP5HYD1BF1ERPANRBO7LHWT,2,porous_1_a,porous_1,contained,porous,a,1,Rev,G,0.1,G,False,G,False
A1W2AXHN5R2J91:30BXRYBRP5HYD1BF1ERPANRBO7LHWT,2,porous_5_a,porous_5,contained,porous,a,5,Fwd,G,0.052,G,False,G,False
A1W2AXHN5R2J91:30BXRYBRP5HYD1BF1ERPANRBO7LHWT,2,stopper_3_a,stopper_3,contained,stopper,a,3,None,G,0.239,G,True,R,False
A1W2AXHN5R2J91:30BXRYBRP5HYD1BF1ERPANRBO7LHWT,2,regular_17,regular_17,regular,NA,NA,17,Fwd,G,0.689,G,False,G,False
A1W2AXHN5R2J91:30BXRYBRP5HYD1BF1ERPANRBO7LHWT,2,size_3_c,size_3,contained,size,c,3,None,G,0.483,G,False,G,False
A1W2AXHN5R2J91:30BXRYBRP5HYD1BF1ERPANRBO7LHWT,2,regular_6,regular_6,regular,NA,NA,6,Fwd,R,0.235,G,True,G,False
A1W2AXHN5R2J91:30BXRYBRP5HYD1BF1ERPANRBO7LHWT,2,regular_10,regular_10,regular,NA,NA,10,None,G,0.334,R,True,R,False
A1W2AXHN5R2J91:30BXRYBRP5HYD1BF1ERPANRBO7LHWT,2,stopper_6_a,stopper_6,contained,stopper,a,6,None,G,0.193,G,True,R,False
A1W2AXHN5R2J91:30BXRYBRP5HYD1BF1ERPANRBO7LHWT,2,regular_12,regular_12,regular,NA,NA,12,Fwd,R,0.168,G,False,R,False
A1W2AXHN5R2J91:30BXRYBRP5HYD1BF1ERPANRBO7LHWT,2,stopper_4_a,stopper_4,contained,stopper,a,4,Rev,G,0.063,G,False,G,False
A1W2AXHN5R2J91:30BXRYBRP5HYD1BF1ERPANRBO7LHWT,2,size_4_c,size_4,contained,size,c,4,Rev,G,0.212,G,True,R,False
A1W2AXHN5R2J91:30BXRYBRP5HYD1BF1ERPANRBO7LHWT,2,regular_15,regular_15,regular,NA,NA,15,Fwd,R,0.292,G,True,G,False
A1W2AXHN5R2J91:30BXRYBRP5HYD1BF1ERPANRBO7LHWT,2,regular_21,regular_21,regular,NA,NA,21,Fwd,G,0.409,R,False,G,False
A1W2AXHN5R2J91:30BXRYBRP5HYD1BF1ERPANRBO7LHWT,2,complex_1_b,complex_1,contained,complex,b,1,Rev,G,0.454,G,False,G,False
A1W2AXHN5R2J91:30BXRYBRP5HYD1BF1ERPANRBO7LHWT,2,regular_22,regular_22,regular,NA,NA,22,None,R,0.59,G,False,R,False
A1W2AXHN5R2J91:30BXRYBRP5HYD1BF1ERPANRBO7LHWT,2,regular_19,regular_19,regular,NA,NA,19,None,G,0.193,G,False,G,False
A1W2AXHN5R2J91:30BXRYBRP5HYD1BF1ERPANRBO7LHWT,2,complex_5_b,complex_5,contained,complex,b,5,Fwd,G,0.429,G,True,R,False
A1W2AXHN5R2J91:30BXRYBRP5HYD1BF1ERPANRBO7LHWT,2,regular_20,regular_20,regular,NA,NA,20,Fwd,R,0.268,G,True,G,False
A1W2AXHN5R2J91:30BXRYBRP5HYD1BF1ERPANRBO7LHWT,2,size_6_c,size_6,contained,size,c,6,None,G,0.42,G,True,R,False
A1W2AXHN5R2J91:30BXRYBRP5HYD1BF1ERPANRBO7LHWT,2,size_5_c,size_5,contained,size,c,5,Fwd,G,0.113,G,False,G,False
A1W2AXHN5R2J91:30BXRYBRP5HYD1BF1ERPANRBO7LHWT,2,regular_1,regular_1,regular,NA,NA,1,None,R,0.727,G,True,G,False
A1W2AXHN5R2J91:30BXRYBRP5HYD1BF1ERPANRBO7LHWT,2,regular_16,regular_16,regular,NA,NA,16,None,G,0.156,G,False,G,False
A1W2AXHN5R2J91:30BXRYBRP5HYD1BF1ERPANRBO7LHWT,2,complex_2_b,complex_2,contained,complex,b,2,Fwd,G,0.083,G,False,G,False
A1W2AXHN5R2J91:30BXRYBRP5HYD1BF1ERPANRBO7LHWT,2,regular_18,regular_18,regular,NA,NA,18,Fwd,R,0.483,G,False,R,False
A1W2AXHN5R2J91:30BXRYBRP5HYD1BF1ERPANRBO7LHWT,2,complex_3_b,complex_3,contained,complex,b,3,None,G,0.289,G,True,R,False
A1W2AXHN5R2J91:30BXRYBRP5HYD1BF1ERPANRBO7LHWT,2,complex_4_b,complex_4,contained,complex,b,4,Rev,G,0.137,G,False,G,False
A1W2AXHN5R2J91:30BXRYBRP5HYD1BF1ERPANRBO7LHWT,2,regular_14,regular_14,regular,NA,NA,14,Fwd,G,0.102,G,True,R,False
A1W2AXHN5R2J91:30BXRYBRP5HYD1BF1ERPANRBO7LHWT,2,regular_2,regular_2,regular,NA,NA,2,Fwd,G,0.464,G,True,R,False
A1W2AXHN5R2J91:30BXRYBRP5HYD1BF1ERPANRBO7LHWT,2,regular_0,regular_0,regular,NA,NA,0,Fwd,R,0.102,R,True,G,False
A1W2AXHN5R2J91:30BXRYBRP5HYD1BF1ERPANRBO7LHWT,2,regular_11,regular_11,regular,NA,NA,11,Fwd,R,0.147,R,True,G,False
A26M997VYVK0E6:3R3YRB5GRGN6BAEW082WBDJAQWKAUC,2,regular_16,regular_16,regular,NA,NA,16,None,R,0.813,G,False,R,False
A26M997VYVK0E6:3R3YRB5GRGN6BAEW082WBDJAQWKAUC,2,regular_21,regular_21,regular,NA,NA,21,Fwd,G,0.355,R,False,G,False
A26M997VYVK0E6:3R3YRB5GRGN6BAEW082WBDJAQWKAUC,2,stopper_2_a,stopper_2,contained,stopper,a,2,Fwd,R,-1.0,G,True,,False
A26M997VYVK0E6:3R3YRB5GRGN6BAEW082WBDJAQWKAUC,2,regular_20,regular_20,regular,NA,NA,20,Fwd,G,0.024,G,False,G,False
A26M997VYVK0E6:3R3YRB5GRGN6BAEW082WBDJAQWKAUC,2,stopper_4_a,stopper_4,contained,stopper,a,4,Rev,R,0.487,G,False,R,False
A26M997VYVK0E6:3R3YRB5GRGN6BAEW082WBDJAQWKAUC,2,size_6_c,size_6,contained,size,c,6,None,G,0.75,G,True,R,False
A26M997VYVK0E6:3R3YRB5GRGN6BAEW082WBDJAQWKAUC,2,complex_4_b,complex_4,contained,complex,b,4,Rev,G,0.054,G,True,R,False
A26M997VYVK0E6:3R3YRB5GRGN6BAEW082WBDJAQWKAUC,2,regular_0,regular_0,regular,NA,NA,0,Fwd,R,0.05,R,False,R,False
A26M997VYVK0E6:3R3YRB5GRGN6BAEW082WBDJAQWKAUC,2,regular_18,regular_18,regular,NA,NA,18,Fwd,G,0.148,G,True,R,False
A26M997VYVK0E6:3R3YRB5GRGN6BAEW082WBDJAQWKAUC,2,stopper_6_a,stopper_6,contained,stopper,a,6,None,G,0.085,G,False,G,False
A26M997VYVK0E6:3R3YRB5GRGN6BAEW082WBDJAQWKAUC,2,regular_8,regular_8,regular,NA,NA,8,Fwd,R,0.022,R,True,G,False
A26M997VYVK0E6:3R3YRB5GRGN6BAEW082WBDJAQWKAUC,2,regular_12,regular_12,regular,NA,NA,12,Fwd,G,0.259,G,True,R,False
A26M997VYVK0E6:3R3YRB5GRGN6BAEW082WBDJAQWKAUC,2,porous_2_a,porous_2,contained,porous,a,2,Fwd,G,0.187,G,False,G,False
A26M997VYVK0E6:3R3YRB5GRGN6BAEW082WBDJAQWKAUC,2,size_1_c,size_1,contained,size,c,1,Rev,G,0.076,G,False,G,False
A26M997VYVK0E6:3R3YRB5GRGN6BAEW082WBDJAQWKAUC,2,regular_1,regular_1,regular,NA,NA,1,None,G,0.24,G,True,R,False
A26M997VYVK0E6:3R3YRB5GRGN6BAEW082WBDJAQWKAUC,2,regular_7,regular_7,regular,NA,NA,7,None,G,0.533,G,True,R,False
A26M997VYVK0E6:3R3YRB5GRGN6BAEW082WBDJAQWKAUC,2,regular_9,regular_9,regular,NA,NA,9,Fwd,R,0.619,R,False,R,False
A26M997VYVK0E6:3R3YRB5GRGN6BAEW082WBDJAQWKAUC,2,regular_10,regular_10,regular,NA,NA,10,None,R,0.96,R,False,R,False
A26M997VYVK0E6:3R3YRB5GRGN6BAEW082WBDJAQWKAUC,2,size_5_c,size_5,contained,size,c,5,Fwd,G,1.588,G,False,G,False
A26M997VYVK0E6:3R3YRB5GRGN6BAEW082WBDJAQWKAUC,2,size_2_c,size_2,contained,size,c,2,Fwd,G,0.132,G,True,R,False
A26M997VYVK0E6:3R3YRB5GRGN6BAEW082WBDJAQWKAUC,2,porous_3_a,porous_3,contained,porous,a,3,None,G,0.183,G,True,R,False
A26M997VYVK0E6:3R3YRB5GRGN6BAEW082WBDJAQWKAUC,2,stopper_5_a,stopper_5,contained,stopper,a,5,Fwd,G,0.224,G,False,G,False
A26M997VYVK0E6:3R3YRB5GRGN6BAEW082WBDJAQWKAUC,2,porous_1_a,porous_1,contained,porous,a,1,Rev,R,0.108,G,False,R,False
A26M997VYVK0E6:3R3YRB5GRGN6BAEW082WBDJAQWKAUC,2,regular_3,regular_3,regular,NA,NA,3,Fwd,G,0.341,R,False,G,False
A26M997VYVK0E6:3R3YRB5GRGN6BAEW082WBDJAQWKAUC,2,complex_5_b,complex_5,contained,complex,b,5,Fwd,G,0.161,G,False,G,False
A26M997VYVK0E6:3R3YRB5GRGN6BAEW082WBDJAQWKAUC,2,regular_22,regular_22,regular,NA,NA,22,None,R,0.439,G,True,G,False
A26M997VYVK0E6:3R3YRB5GRGN6BAEW082WBDJAQWKAUC,2,complex_1_b,complex_1,contained,complex,b,1,Rev,,-1.0,G,False,,False
A26M997VYVK0E6:3R3YRB5GRGN6BAEW082WBDJAQWKAUC,2,regular_14,regular_14,regular,NA,NA,14,Fwd,G,0.156,G,False,G,False
A26M997VYVK0E6:3R3YRB5GRGN6BAEW082WBDJAQWKAUC,2,size_4_c,size_4,contained,size,c,4,Rev,G,0.337,G,False,G,False
A26M997VYVK0E6:3R3YRB5GRGN6BAEW082WBDJAQWKAUC,2,regular_2,regular_2,regular,NA,NA,2,Fwd,G,0.306,G,True,R,False
A26M997VYVK0E6:3R3YRB5GRGN6BAEW082WBDJAQWKAUC,2,regular_6,regular_6,regular,NA,NA,6,Fwd,R,0.238,G,True,G,False
A26M997VYVK0E6:3R3YRB5GRGN6BAEW082WBDJAQWKAUC,2,complex_3_b,complex_3,contained,complex,b,3,None,G,0.81,G,True,R,False
A26M997VYVK0E6:3R3YRB5GRGN6BAEW082WBDJAQWKAUC,2,regular_4,regular_4,regular,NA,NA,4,None,G,0.541,R,True,R,False
A26M997VYVK0E6:3R3YRB5GRGN6BAEW082WBDJAQWKAUC,2,stopper_1_a,stopper_1,contained,stopper,a,1,Rev,G,0.183,G,False,G,False
A26M997VYVK0E6:3R3YRB5GRGN6BAEW082WBDJAQWKAUC,2,porous_6_a,porous_6,contained,porous,a,6,None,G,0.389,G,False,G,False
A26M997VYVK0E6:3R3YRB5GRGN6BAEW082WBDJAQWKAUC,2,regular_17,regular_17,regular,NA,NA,17,Fwd,G,0.192,G,False,G,False
A26M997VYVK0E6:3R3YRB5GRGN6BAEW082WBDJAQWKAUC,2,stopper_3_a,stopper_3,contained,stopper,a,3,None,G,0.099,G,False,G,False
A26M997VYVK0E6:3R3YRB5GRGN6BAEW082WBDJAQWKAUC,2,porous_5_a,porous_5,contained,porous,a,5,Fwd,G,0.691,G,False,G,False
A26M997VYVK0E6:3R3YRB5GRGN6BAEW082WBDJAQWKAUC,2,regular_11,regular_11,regular,NA,NA,11,Fwd,R,-1.0,R,True,,False
A26M997VYVK0E6:3R3YRB5GRGN6BAEW082WBDJAQWKAUC,2,porous_4_a,porous_4,contained,porous,a,4,Rev,,-1.0,G,False,,False
A26M997VYVK0E6:3R3YRB5GRGN6BAEW082WBDJAQWKAUC,2,regular_19,regular_19,regular,NA,NA,19,None,G,1.414,G,False,G,False
A26M997VYVK0E6:3R3YRB5GRGN6BAEW082WBDJAQWKAUC,2,regular_23,regular_23,regular,NA,NA,23,Fwd,,-1.0,R,False,,False
A26M997VYVK0E6:3R3YRB5GRGN6BAEW082WBDJAQWKAUC,2,regular_13,regular_13,regular,NA,NA,13,None,R,0.167,G,False,R,False
A26M997VYVK0E6:3R3YRB5GRGN6BAEW082WBDJAQWKAUC,2,complex_2_b,complex_2,contained,complex,b,2,Fwd,G,0.467,G,True,R,False
A26M997VYVK0E6:3R3YRB5GRGN6BAEW082WBDJAQWKAUC,2,complex_6_b,complex_6,contained,complex,b,6,None,G,0.74,G,True,R,False
A26M997VYVK0E6:3R3YRB5GRGN6BAEW082WBDJAQWKAUC,2,regular_5,regular_5,regular,NA,NA,5,Fwd,G,0.583,R,True,R,False
A26M997VYVK0E6:3R3YRB5GRGN6BAEW082WBDJAQWKAUC,2,size_3_c,size_3,contained,size,c,3,None,G,0.446,G,False,G,False
A26M997VYVK0E6:3R3YRB5GRGN6BAEW082WBDJAQWKAUC,2,regular_15,regular_15,regular,NA,NA,15,Fwd,G,0.671,G,False,G,False
A2AWBDW9V1E9KT:3RWE2M8QWIUXF7W5B5TH8CF39EUN0L,1,stopper_6_a,stopper_6,contained,stopper,a,6,Fwd,G,0.248,G,True,R,False
A2AWBDW9V1E9KT:3RWE2M8QWIUXF7W5B5TH8CF39EUN0L,1,regular_2,regular_2,regular,NA,NA,2,None,R,0.822,G,False,R,False
A2AWBDW9V1E9KT:3RWE2M8QWIUXF7W5B5TH8CF39EUN0L,1,size_4_c,size_4,contained,size,c,4,None,G,0.543,G,False,G,False
A2AWBDW9V1E9KT:3RWE2M8QWIUXF7W5B5TH8CF39EUN0L,1,porous_3_a,porous_3,contained,porous,a,3,Fwd,G,0.207,G,False,G,False
A2AWBDW9V1E9KT:3RWE2M8QWIUXF7W5B5TH8CF39EUN0L,1,stopper_1_a,stopper_1,contained,stopper,a,1,None,G,0.119,G,False,G,False
A2AWBDW9V1E9KT:3RWE2M8QWIUXF7W5B5TH8CF39EUN0L,1,complex_6_b,complex_6,contained,complex,b,6,Fwd,G,0.63,G,True,R,False
A2AWBDW9V1E9KT:3RWE2M8QWIUXF7W5B5TH8CF39EUN0L,1,stopper_4_a,stopper_4,contained,stopper,a,4,None,G,0.2,G,True,R,False
A2AWBDW9V1E9KT:3RWE2M8QWIUXF7W5B5TH8CF39EUN0L,1,stopper_3_a,stopper_3,contained,stopper,a,3,Fwd,G,0.233,G,False,G,False
A2AWBDW9V1E9KT:3RWE2M8QWIUXF7W5B5TH8CF39EUN0L,1,regular_4,regular_4,regular,NA,NA,4,Fwd,R,0.015,R,False,R,False
A2AWBDW9V1E9KT:3RWE2M8QWIUXF7W5B5TH8CF39EUN0L,1,complex_5_b,complex_5,contained,complex,b,5,Rev,G,0.558,G,False,G,False
A2AWBDW9V1E9KT:3RWE2M8QWIUXF7W5B5TH8CF39EUN0L,1,complex_4_b,complex_4,contained,complex,b,4,None,G,0.303,G,False,G,False
A2AWBDW9V1E9KT:3RWE2M8QWIUXF7W5B5TH8CF39EUN0L,1,size_1_c,size_1,contained,size,c,1,None,G,0.137,G,False,G,False
A2AWBDW9V1E9KT:3RWE2M8QWIUXF7W5B5TH8CF39EUN0L,1,regular_23,regular_23,regular,NA,NA,23,None,R,0.816,R,True,G,False
A2AWBDW9V1E9KT:3RWE2M8QWIUXF7W5B5TH8CF39EUN0L,1,regular_12,regular_12,regular,NA,NA,12,Fwd,R,0.101,G,True,G,False
A2AWBDW9V1E9KT:3RWE2M8QWIUXF7W5B5TH8CF39EUN0L,1,regular_0,regular_0,regular,NA,NA,0,Fwd,R,1.15,R,True,G,False
A2AWBDW9V1E9KT:3RWE2M8QWIUXF7W5B5TH8CF39EUN0L,1,porous_6_a,porous_6,contained,porous,a,6,Fwd,G,0.162,G,False,G,False
A2AWBDW9V1E9KT:3RWE2M8QWIUXF7W5B5TH8CF39EUN0L,1,regular_8,regular_8,regular,NA,NA,8,None,G,0.503,R,True,R,False
A2AWBDW9V1E9KT:3RWE2M8QWIUXF7W5B5TH8CF39EUN0L,1,regular_22,regular_22,regular,NA,NA,22,Fwd,R,1.206,G,True,G,False
A2AWBDW9V1E9KT:3RWE2M8QWIUXF7W5B5TH8CF39EUN0L,1,size_2_c,size_2,contained,size,c,2,Rev,G,0.713,G,False,G,False
A2AWBDW9V1E9KT:3RWE2M8QWIUXF7W5B5TH8CF39EUN0L,1,porous_2_a,porous_2,contained,porous,a,2,Rev,G,0.056,G,False,G,False
A2AWBDW9V1E9KT:3RWE2M8QWIUXF7W5B5TH8CF39EUN0L,1,stopper_5_a,stopper_5,contained,stopper,a,5,Rev,G,0.038,G,False,G,False
A2AWBDW9V1E9KT:3RWE2M8QWIUXF7W5B5TH8CF39EUN0L,1,regular_7,regular_7,regular,NA,NA,7,Fwd,G,0.287,G,True,R,False
A2AWBDW9V1E9KT:3RWE2M8QWIUXF7W5B5TH8CF39EUN0L,1,complex_3_b,complex_3,contained,complex,b,3,Fwd,R,0.174,G,True,G,False
A2AWBDW9V1E9KT:3RWE2M8QWIUXF7W5B5TH8CF39EUN0L,1,porous_4_a,porous_4,contained,porous,a,4,None,G,0.159,G,False,G,False
A2AWBDW9V1E9KT:3RWE2M8QWIUXF7W5B5TH8CF39EUN0L,1,regular_19,regular_19,regular,NA,NA,19,Fwd,R,1.745,G,True,G,False
A2AWBDW9V1E9KT:3RWE2M8QWIUXF7W5B5TH8CF39EUN0L,1,complex_2_b,complex_2,contained,complex,b,2,Rev,G,0.545,G,False,G,False
A2AWBDW9V1E9KT:3RWE2M8QWIUXF7W5B5TH8CF39EUN0L,1,regular_13,regular_13,regular,NA,NA,13,Fwd,R,1.042,G,False,R,False
A2AWBDW9V1E9KT:3RWE2M8QWIUXF7W5B5TH8CF39EUN0L,1,size_3_c,size_3,contained,size,c,3,Fwd,R,0.254,G,True,G,False
A2AWBDW9V1E9KT:3RWE2M8QWIUXF7W5B5TH8CF39EUN0L,1,regular_17,regular_17,regular,NA,NA,17,None,R,0.423,G,False,R,False
A2AWBDW9V1E9KT:3RWE2M8QWIUXF7W5B5TH8CF39EUN0L,1,regular_11,regular_11,regular,NA,NA,11,None,R,1.143,R,False,R,False
A2AWBDW9V1E9KT:3RWE2M8QWIUXF7W5B5TH8CF39EUN0L,1,size_5_c,size_5,contained,size,c,5,Rev,G,0.288,G,False,G,False
A2AWBDW9V1E9KT:3RWE2M8QWIUXF7W5B5TH8CF39EUN0L,1,regular_9,regular_9,regular,NA,NA,9,Fwd,R,0.111,R,True,G,False
A2AWBDW9V1E9KT:3RWE2M8QWIUXF7W5B5TH8CF39EUN0L,1,complex_1_b,complex_1,contained,complex,b,1,None,G,0.335,G,False,G,False
A2AWBDW9V1E9KT:3RWE2M8QWIUXF7W5B5TH8CF39EUN0L,1,regular_10,regular_10,regular,NA,NA,10,Fwd,R,0.67,R,False,R,False
A2AWBDW9V1E9KT:3RWE2M8QWIUXF7W5B5TH8CF39EUN0L,1,regular_5,regular_5,regular,NA,NA,5,None,R,0.99,R,False,R,False
A2AWBDW9V1E9KT:3RWE2M8QWIUXF7W5B5TH8CF39EUN0L,1,regular_15,regular_15,regular,NA,NA,15,Fwd,R,0.703,G,False,R,False
A2AWBDW9V1E9KT:3RWE2M8QWIUXF7W5B5TH8CF39EUN0L,1,regular_6,regular_6,regular,NA,NA,6,Fwd,R,0.104,G,True,G,False
A2AWBDW9V1E9KT:3RWE2M8QWIUXF7W5B5TH8CF39EUN0L,1,regular_1,regular_1,regular,NA,NA,1,Fwd,G,0.913,G,False,G,False
A2AWBDW9V1E9KT:3RWE2M8QWIUXF7W5B5TH8CF39EUN0L,1,porous_5_a,porous_5,contained,porous,a,5,Rev,G,0.248,G,True,R,False
A2AWBDW9V1E9KT:3RWE2M8QWIUXF7W5B5TH8CF39EUN0L,1,regular_20,regular_20,regular,NA,NA,20,None,G,0.535,G,False,G,False
A2AWBDW9V1E9KT:3RWE2M8QWIUXF7W5B5TH8CF39EUN0L,1,size_6_c,size_6,contained,size,c,6,Fwd,G,0.27,G,False,G,False
A2AWBDW9V1E9KT:3RWE2M8QWIUXF7W5B5TH8CF39EUN0L,1,porous_1_a,porous_1,contained,porous,a,1,None,G,0.127,G,True,R,False
A2AWBDW9V1E9KT:3RWE2M8QWIUXF7W5B5TH8CF39EUN0L,1,stopper_2_a,stopper_2,contained,stopper,a,2,Rev,R,0.063,G,True,G,False
A2AWBDW9V1E9KT:3RWE2M8QWIUXF7W5B5TH8CF39EUN0L,1,regular_14,regular_14,regular,NA,NA,14,None,R,0.985,G,False,R,False
A2AWBDW9V1E9KT:3RWE2M8QWIUXF7W5B5TH8CF39EUN0L,1,regular_21,regular_21,regular,NA,NA,21,Fwd,G,1.736,R,True,R,False
A2AWBDW9V1E9KT:3RWE2M8QWIUXF7W5B5TH8CF39EUN0L,1,regular_16,regular_16,regular,NA,NA,16,Fwd,G,0.67,G,False,G,False
A2AWBDW9V1E9KT:3RWE2M8QWIUXF7W5B5TH8CF39EUN0L,1,regular_3,regular_3,regular,NA,NA,3,Fwd,R,1.153,R,False,R,False
A2AWBDW9V1E9KT:3RWE2M8QWIUXF7W5B5TH8CF39EUN0L,1,regular_18,regular_18,regular,NA,NA,18,Fwd,G,1.176,G,False,G,False
A2CYD8QD1JO0O5:3JMSRU9HQJE9E2K8L3EN3IBKPI5EVE,2,regular_5,regular_5,regular,NA,NA,5,Fwd,G,0.961,R,True,R,False
A2CYD8QD1JO0O5:3JMSRU9HQJE9E2K8L3EN3IBKPI5EVE,2,regular_13,regular_13,regular,NA,NA,13,None,R,-1.0,G,True,,False
A2CYD8QD1JO0O5:3JMSRU9HQJE9E2K8L3EN3IBKPI5EVE,2,complex_6_b,complex_6,contained,complex,b,6,None,G,1.915,G,True,R,False
A2CYD8QD1JO0O5:3JMSRU9HQJE9E2K8L3EN3IBKPI5EVE,2,complex_5_b,complex_5,contained,complex,b,5,Fwd,G,0.554,G,False,G,False
A2CYD8QD1JO0O5:3JMSRU9HQJE9E2K8L3EN3IBKPI5EVE,2,regular_20,regular_20,regular,NA,NA,20,Fwd,,-1.0,G,False,,False
A2CYD8QD1JO0O5:3JMSRU9HQJE9E2K8L3EN3IBKPI5EVE,2,size_6_c,size_6,contained,size,c,6,None,G,0.839,G,False,G,False
A2CYD8QD1JO0O5:3JMSRU9HQJE9E2K8L3EN3IBKPI5EVE,2,porous_2_a,porous_2,contained,porous,a,2,Fwd,G,0.731,G,True,R,False
A2CYD8QD1JO0O5:3JMSRU9HQJE9E2K8L3EN3IBKPI5EVE,2,regular_4,regular_4,regular,NA,NA,4,None,G,1.115,R,True,R,False
A2CYD8QD1JO0O5:3JMSRU9HQJE9E2K8L3EN3IBKPI5EVE,2,stopper_1_a,stopper_1,contained,stopper,a,1,Rev,R,0.554,G,True,G,False
A2CYD8QD1JO0O5:3JMSRU9HQJE9E2K8L3EN3IBKPI5EVE,2,stopper_4_a,stopper_4,contained,stopper,a,4,Rev,G,0.403,G,True,R,False
A2CYD8QD1JO0O5:3JMSRU9HQJE9E2K8L3EN3IBKPI5EVE,2,porous_3_a,porous_3,contained,porous,a,3,None,G,0.314,G,False,G,False
A2CYD8QD1JO0O5:3JMSRU9HQJE9E2K8L3EN3IBKPI5EVE,2,regular_8,regular_8,regular,NA,NA,8,Fwd,G,0.627,R,False,G,False
A2CYD8QD1JO0O5:3JMSRU9HQJE9E2K8L3EN3IBKPI5EVE,2,stopper_5_a,stopper_5,contained,stopper,a,5,Fwd,G,0.354,G,True,R,False
A2CYD8QD1JO0O5:3JMSRU9HQJE9E2K8L3EN3IBKPI5EVE,2,complex_1_b,complex_1,contained,complex,b,1,Rev,G,0.362,G,False,G,False
A2CYD8QD1JO0O5:3JMSRU9HQJE9E2K8L3EN3IBKPI5EVE,2,size_5_c,size_5,contained,size,c,5,Fwd,G,0.564,G,True,R,False
A2CYD8QD1JO0O5:3JMSRU9HQJE9E2K8L3EN3IBKPI5EVE,2,regular_12,regular_12,regular,NA,NA,12,Fwd,R,0.512,G,True,G,False
A2CYD8QD1JO0O5:3JMSRU9HQJE9E2K8L3EN3IBKPI5EVE,2,size_2_c,size_2,contained,size,c,2,Fwd,G,0.479,G,False,G,False
A2CYD8QD1JO0O5:3JMSRU9HQJE9E2K8L3EN3IBKPI5EVE,2,stopper_2_a,stopper_2,contained,stopper,a,2,Fwd,G,0.131,G,True,R,False
A2CYD8QD1JO0O5:3JMSRU9HQJE9E2K8L3EN3IBKPI5EVE,2,regular_18,regular_18,regular,NA,NA,18,Fwd,G,1.171,G,False,G,False
A2CYD8QD1JO0O5:3JMSRU9HQJE9E2K8L3EN3IBKPI5EVE,2,stopper_6_a,stopper_6,contained,stopper,a,6,None,G,0.275,G,True,R,False
A2CYD8QD1JO0O5:3JMSRU9HQJE9E2K8L3EN3IBKPI5EVE,2,regular_23,regular_23,regular,NA,NA,23,Fwd,R,0.363,R,True,G,False
A2CYD8QD1JO0O5:3JMSRU9HQJE9E2K8L3EN3IBKPI5EVE,2,regular_19,regular_19,regular,NA,NA,19,None,G,0.603,G,False,G,False
A2CYD8QD1JO0O5:3JMSRU9HQJE9E2K8L3EN3IBKPI5EVE,2,regular_0,regular_0,regular,NA,NA,0,Fwd,R,1.433,R,True,G,False
A2CYD8QD1JO0O5:3JMSRU9HQJE9E2K8L3EN3IBKPI5EVE,2,regular_16,regular_16,regular,NA,NA,16,None,G,0.496,G,False,G,False
A2CYD8QD1JO0O5:3JMSRU9HQJE9E2K8L3EN3IBKPI5EVE,2,regular_3,regular_3,regular,NA,NA,3,Fwd,R,0.371,R,True,G,False
A2CYD8QD1JO0O5:3JMSRU9HQJE9E2K8L3EN3IBKPI5EVE,2,porous_4_a,porous_4,contained,porous,a,4,Rev,G,0.193,G,True,R,False
A2CYD8QD1JO0O5:3JMSRU9HQJE9E2K8L3EN3IBKPI5EVE,2,regular_17,regular_17,regular,NA,NA,17,Fwd,G,0.887,G,True,R,False
A2CYD8QD1JO0O5:3JMSRU9HQJE9E2K8L3EN3IBKPI5EVE,2,regular_2,regular_2,regular,NA,NA,2,Fwd,G,1.171,G,True,R,False
A2CYD8QD1JO0O5:3JMSRU9HQJE9E2K8L3EN3IBKPI5EVE,2,porous_6_a,porous_6,contained,porous,a,6,None,G,0.364,G,False,G,False
A2CYD8QD1JO0O5:3JMSRU9HQJE9E2K8L3EN3IBKPI5EVE,2,size_3_c,size_3,contained,size,c,3,None,G,0.273,G,True,R,False
A2CYD8QD1JO0O5:3JMSRU9HQJE9E2K8L3EN3IBKPI5EVE,2,porous_1_a,porous_1,contained,porous,a,1,Rev,G,0.25,G,True,R,False
A2CYD8QD1JO0O5:3JMSRU9HQJE9E2K8L3EN3IBKPI5EVE,2,regular_11,regular_11,regular,NA,NA,11,Fwd,G,0.357,R,False,G,False
A2CYD8QD1JO0O5:3JMSRU9HQJE9E2K8L3EN3IBKPI5EVE,2,regular_7,regular_7,regular,NA,NA,7,None,G,0.578,G,False,G,False
A2CYD8QD1JO0O5:3JMSRU9HQJE9E2K8L3EN3IBKPI5EVE,2,size_1_c,size_1,contained,size,c,1,Rev,G,0.147,G,True,R,False
A2CYD8QD1JO0O5:3JMSRU9HQJE9E2K8L3EN3IBKPI5EVE,2,regular_15,regular_15,regular,NA,NA,15,Fwd,R,0.274,G,True,G,False
A2CYD8QD1JO0O5:3JMSRU9HQJE9E2K8L3EN3IBKPI5EVE,2,stopper_3_a,stopper_3,contained,stopper,a,3,None,R,0.53,G,False,R,False
A2CYD8QD1JO0O5:3JMSRU9HQJE9E2K8L3EN3IBKPI5EVE,2,regular_9,regular_9,regular,NA,NA,9,Fwd,R,0.611,R,False,R,False
A2CYD8QD1JO0O5:3JMSRU9HQJE9E2K8L3EN3IBKPI5EVE,2,regular_21,regular_21,regular,NA,NA,21,Fwd,G,0.483,R,False,G,False
A2CYD8QD1JO0O5:3JMSRU9HQJE9E2K8L3EN3IBKPI5EVE,2,complex_2_b,complex_2,contained,complex,b,2,Fwd,G,0.384,G,False,G,False
A2CYD8QD1JO0O5:3JMSRU9HQJE9E2K8L3EN3IBKPI5EVE,2,regular_1,regular_1,regular,NA,NA,1,None,R,0.607,G,False,R,False
A2CYD8QD1JO0O5:3JMSRU9HQJE9E2K8L3EN3IBKPI5EVE,2,complex_3_b,complex_3,contained,complex,b,3,None,G,0.612,G,False,G,False
A2CYD8QD1JO0O5:3JMSRU9HQJE9E2K8L3EN3IBKPI5EVE,2,regular_10,regular_10,regular,NA,NA,10,None,R,0.307,R,True,G,False
A2CYD8QD1JO0O5:3JMSRU9HQJE9E2K8L3EN3IBKPI5EVE,2,porous_5_a,porous_5,contained,porous,a,5,Fwd,G,0.363,G,True,R,False
A2CYD8QD1JO0O5:3JMSRU9HQJE9E2K8L3EN3IBKPI5EVE,2,size_4_c,size_4,contained,size,c,4,Rev,G,0.699,G,True,R,False
A2CYD8QD1JO0O5:3JMSRU9HQJE9E2K8L3EN3IBKPI5EVE,2,regular_22,regular_22,regular,NA,NA,22,None,R,0.442,G,True,G,False
A2CYD8QD1JO0O5:3JMSRU9HQJE9E2K8L3EN3IBKPI5EVE,2,regular_6,regular_6,regular,NA,NA,6,Fwd,G,0.491,G,True,R,False
A2CYD8QD1JO0O5:3JMSRU9HQJE9E2K8L3EN3IBKPI5EVE,2,regular_14,regular_14,regular,NA,NA,14,Fwd,G,1.465,G,True,R,False
A2CYD8QD1JO0O5:3JMSRU9HQJE9E2K8L3EN3IBKPI5EVE,2,complex_4_b,complex_4,contained,complex,b,4,Rev,G,0.301,G,False,G,False
A2DXEPC4QFV4R1:3QY7M81QH86APCBMZRMAVZ8MNXU7KZ,2,complex_2_b,complex_2,contained,complex,b,2,Fwd,G,0.604,G,False,G,False
A2DXEPC4QFV4R1:3QY7M81QH86APCBMZRMAVZ8MNXU7KZ,2,regular_6,regular_6,regular,NA,NA,6,Fwd,G,1.168,G,True,R,False
A2DXEPC4QFV4R1:3QY7M81QH86APCBMZRMAVZ8MNXU7KZ,2,size_6_c,size_6,contained,size,c,6,None,G,0.315,G,False,G,False
A2DXEPC4QFV4R1:3QY7M81QH86APCBMZRMAVZ8MNXU7KZ,2,regular_16,regular_16,regular,NA,NA,16,None,G,0.511,G,True,R,False
A2DXEPC4QFV4R1:3QY7M81QH86APCBMZRMAVZ8MNXU7KZ,2,regular_9,regular_9,regular,NA,NA,9,Fwd,R,0.691,R,False,R,False
A2DXEPC4QFV4R1:3QY7M81QH86APCBMZRMAVZ8MNXU7KZ,2,regular_2,regular_2,regular,NA,NA,2,Fwd,G,1.154,G,False,G,False
A2DXEPC4QFV4R1:3QY7M81QH86APCBMZRMAVZ8MNXU7KZ,2,stopper_4_a,stopper_4,contained,stopper,a,4,Rev,G,0.358,G,False,G,False
A2DXEPC4QFV4R1:3QY7M81QH86APCBMZRMAVZ8MNXU7KZ,2,regular_14,regular_14,regular,NA,NA,14,Fwd,G,0.338,G,True,R,False
A2DXEPC4QFV4R1:3QY7M81QH86APCBMZRMAVZ8MNXU7KZ,2,complex_1_b,complex_1,contained,complex,b,1,Rev,G,1.914,G,False,G,False
A2DXEPC4QFV4R1:3QY7M81QH86APCBMZRMAVZ8MNXU7KZ,2,complex_3_b,complex_3,contained,complex,b,3,None,G,0.743,G,False,G,False
A2DXEPC4QFV4R1:3QY7M81QH86APCBMZRMAVZ8MNXU7KZ,2,regular_10,regular_10,regular,NA,NA,10,None,R,0.467,R,False,R,False
A2DXEPC4QFV4R1:3QY7M81QH86APCBMZRMAVZ8MNXU7KZ,2,regular_8,regular_8,regular,NA,NA,8,Fwd,G,0.356,R,True,R,False
A2DXEPC4QFV4R1:3QY7M81QH86APCBMZRMAVZ8MNXU7KZ,2,complex_5_b,complex_5,contained,complex,b,5,Fwd,G,0.733,G,True,R,False
A2DXEPC4QFV4R1:3QY7M81QH86APCBMZRMAVZ8MNXU7KZ,2,stopper_1_a,stopper_1,contained,stopper,a,1,Rev,G,0.341,G,True,R,False
A2DXEPC4QFV4R1:3QY7M81QH86APCBMZRMAVZ8MNXU7KZ,2,porous_4_a,porous_4,contained,porous,a,4,Rev,G,0.188,G,True,R,False
A2DXEPC4QFV4R1:3QY7M81QH86APCBMZRMAVZ8MNXU7KZ,2,porous_3_a,porous_3,contained,porous,a,3,None,G,0.261,G,False,G,False
A2DXEPC4QFV4R1:3QY7M81QH86APCBMZRMAVZ8MNXU7KZ,2,porous_5_a,porous_5,contained,porous,a,5,Fwd,G,0.078,G,False,G,False
A2DXEPC4QFV4R1:3QY7M81QH86APCBMZRMAVZ8MNXU7KZ,2,complex_4_b,complex_4,contained,complex,b,4,Rev,G,0.282,G,False,G,False
A2DXEPC4QFV4R1:3QY7M81QH86APCBMZRMAVZ8MNXU7KZ,2,regular_21,regular_21,regular,NA,NA,21,Fwd,G,0.169,R,False,G,False
A2DXEPC4QFV4R1:3QY7M81QH86APCBMZRMAVZ8MNXU7KZ,2,regular_4,regular_4,regular,NA,NA,4,None,R,0.292,R,True,G,False
A2DXEPC4QFV4R1:3QY7M81QH86APCBMZRMAVZ8MNXU7KZ,2,porous_1_a,porous_1,contained,porous,a,1,Rev,G,0.239,G,False,G,False
A2DXEPC4QFV4R1:3QY7M81QH86APCBMZRMAVZ8MNXU7KZ,2,regular_18,regular_18,regular,NA,NA,18,Fwd,G,0.162,G,True,R,False
A2DXEPC4QFV4R1:3QY7M81QH86APCBMZRMAVZ8MNXU7KZ,2,regular_19,regular_19,regular,NA,NA,19,None,R,0.324,G,True,G,False
A2DXEPC4QFV4R1:3QY7M81QH86APCBMZRMAVZ8MNXU7KZ,2,stopper_5_a,stopper_5,contained,stopper,a,5,Fwd,R,0.223,G,True,G,False
A2DXEPC4QFV4R1:3QY7M81QH86APCBMZRMAVZ8MNXU7KZ,2,stopper_3_a,stopper_3,contained,stopper,a,3,None,G,0.084,G,False,G,False
A2DXEPC4QFV4R1:3QY7M81QH86APCBMZRMAVZ8MNXU7KZ,2,regular_20,regular_20,regular,NA,NA,20,Fwd,G,0.04,G,True,R,False
A2DXEPC4QFV4R1:3QY7M81QH86APCBMZRMAVZ8MNXU7KZ,2,regular_12,regular_12,regular,NA,NA,12,Fwd,R,0.102,G,False,R,False
A2DXEPC4QFV4R1:3QY7M81QH86APCBMZRMAVZ8MNXU7KZ,2,stopper_2_a,stopper_2,contained,stopper,a,2,Fwd,G,0.338,G,True,R,False
A2DXEPC4QFV4R1:3QY7M81QH86APCBMZRMAVZ8MNXU7KZ,2,regular_3,regular_3,regular,NA,NA,3,Fwd,R,0.07,R,False,R,False
A2DXEPC4QFV4R1:3QY7M81QH86APCBMZRMAVZ8MNXU7KZ,2,regular_13,regular_13,regular,NA,NA,13,None,R,0.117,G,True,G,False
A2DXEPC4QFV4R1:3QY7M81QH86APCBMZRMAVZ8MNXU7KZ,2,regular_17,regular_17,regular,NA,NA,17,Fwd,R,0.608,G,False,R,False
A2DXEPC4QFV4R1:3QY7M81QH86APCBMZRMAVZ8MNXU7KZ,2,regular_22,regular_22,regular,NA,NA,22,None,R,0.509,G,False,R,False
A2DXEPC4QFV4R1:3QY7M81QH86APCBMZRMAVZ8MNXU7KZ,2,regular_1,regular_1,regular,NA,NA,1,None,G,0.287,G,True,R,False
A2DXEPC4QFV4R1:3QY7M81QH86APCBMZRMAVZ8MNXU7KZ,2,regular_11,regular_11,regular,NA,NA,11,Fwd,R,0.372,R,True,G,False
A2DXEPC4QFV4R1:3QY7M81QH86APCBMZRMAVZ8MNXU7KZ,2,complex_6_b,complex_6,contained,complex,b,6,None,G,0.349,G,False,G,False
A2DXEPC4QFV4R1:3QY7M81QH86APCBMZRMAVZ8MNXU7KZ,2,regular_23,regular_23,regular,NA,NA,23,Fwd,R,0.197,R,True,G,False
A2DXEPC4QFV4R1:3QY7M81QH86APCBMZRMAVZ8MNXU7KZ,2,size_4_c,size_4,contained,size,c,4,Rev,G,0.378,G,False,G,False
A2DXEPC4QFV4R1:3QY7M81QH86APCBMZRMAVZ8MNXU7KZ,2,regular_7,regular_7,regular,NA,NA,7,None,R,0.061,G,True,G,False
A2DXEPC4QFV4R1:3QY7M81QH86APCBMZRMAVZ8MNXU7KZ,2,size_2_c,size_2,contained,size,c,2,Fwd,G,0.141,G,False,G,False
A2DXEPC4QFV4R1:3QY7M81QH86APCBMZRMAVZ8MNXU7KZ,2,regular_15,regular_15,regular,NA,NA,15,Fwd,R,0.664,G,False,R,False
A2DXEPC4QFV4R1:3QY7M81QH86APCBMZRMAVZ8MNXU7KZ,2,size_1_c,size_1,contained,size,c,1,Rev,R,0.262,G,True,G,False
A2DXEPC4QFV4R1:3QY7M81QH86APCBMZRMAVZ8MNXU7KZ,2,regular_5,regular_5,regular,NA,NA,5,Fwd,G,0.6,R,False,G,False
A2DXEPC4QFV4R1:3QY7M81QH86APCBMZRMAVZ8MNXU7KZ,2,size_3_c,size_3,contained,size,c,3,None,G,0.152,G,False,G,False
A2DXEPC4QFV4R1:3QY7M81QH86APCBMZRMAVZ8MNXU7KZ,2,regular_0,regular_0,regular,NA,NA,0,Fwd,R,0.427,R,True,G,False
A2DXEPC4QFV4R1:3QY7M81QH86APCBMZRMAVZ8MNXU7KZ,2,porous_6_a,porous_6,contained,porous,a,6,None,G,0.094,G,False,G,False
A2DXEPC4QFV4R1:3QY7M81QH86APCBMZRMAVZ8MNXU7KZ,2,stopper_6_a,stopper_6,contained,stopper,a,6,None,G,0.088,G,True,R,False
A2DXEPC4QFV4R1:3QY7M81QH86APCBMZRMAVZ8MNXU7KZ,2,size_5_c,size_5,contained,size,c,5,Fwd,G,0.268,G,False,G,False
A2DXEPC4QFV4R1:3QY7M81QH86APCBMZRMAVZ8MNXU7KZ,2,porous_2_a,porous_2,contained,porous,a,2,Fwd,G,0.091,G,False,G,False
A2KNGJAR5Y0HYW:3OE22WJIGJ8YYQLDP4ZI1DYFVFGUQG,0,regular_16,regular_16,regular,NA,NA,16,Fwd,G,1.86,G,False,G,False
A2KNGJAR5Y0HYW:3OE22WJIGJ8YYQLDP4ZI1DYFVFGUQG,0,porous_3_a,porous_3,contained,porous,a,3,Rev,G,1.369,G,False,G,False
A2KNGJAR5Y0HYW:3OE22WJIGJ8YYQLDP4ZI1DYFVFGUQG,0,regular_23,regular_23,regular,NA,NA,23,Fwd,R,1.149,R,False,R,False
A2KNGJAR5Y0HYW:3OE22WJIGJ8YYQLDP4ZI1DYFVFGUQG,0,size_5_c,size_5,contained,size,c,5,None,G,0.916,G,True,R,False
