WID,Trial,TrialBase,ContainmentType,ContainmentLevel,TrialNum,GoalReachable,MotionDirection,Response,RT,TrialOrder,WasBad
A10VLJT7V96D9W:3TY7ZAOG5G4W71B2ES11GKYZG3QK0J,size_6_c,size_6,size,c,6,True,None,True,2.118,0,False
A10VLJT7V96D9W:3TY7ZAOG5G4W71B2ES11GKYZG3QK0J,stopper_6_a,stopper_6,stopper,a,6,True,Rev,False,1.272,1,False
A10VLJT7V96D9W:3TY7ZAOG5G4W71B2ES11GKYZG3QK0J,size_5_c,size_5,size,c,5,False,Rev,False,0.797,2,False
A10VLJT7V96D9W:3TY7ZAOG5G4W71B2ES11GKYZG3QK0J,complex_3_b,complex_3,complex,b,3,False,Fwd,False,0.367,3,False
A10VLJT7V96D9W:3TY7ZAOG5G4W71B2ES11GKYZG3QK0J,complex_4_b,complex_4,complex,b,4,False,Rev,False,0.184,4,False
A10VLJT7V96D9W:3TY7ZAOG5G4W71B2ES11GKYZG3QK0J,stopper_4_a,stopper_4,stopper,a,4,False,None,False,0.195,5,False
A10VLJT7V96D9W:3TY7ZAOG5G4W71B2ES11GKYZG3QK0J,size_1_c,size_1,size,c,1,False,Fwd,False,0.366,6,False
A10VLJT7V96D9W:3TY7ZAOG5G4W71B2ES11GKYZG3QK0J,stopper_2_a,stopper_2,stopper,a,2,True,Rev,True,0.432,7,False
A10VLJT7V96D9W:3TY7ZAOG5G4W71B2ES11GKYZG3QK0J,porous_4_a,porous_4,porous,a,4,True,Fwd,True,0.027,8,False
A10VLJT7V96D9W:3TY7ZAOG5G4W71B2ES11GKYZG3QK0J,stopper_5_a,stopper_5,stopper,a,5,False,Fwd,False,0.249,9,False
A10VLJT7V96D9W:3TY7ZAOG5G4W71B2ES11GKYZG3QK0J,complex_1_b,complex_1,complex,b,1,True,None,False,0.52,10,False
A10VLJT7V96D9W:3TY7ZAOG5G4W71B2ES11GKYZG3QK0J,complex_6_b,complex_6,complex,b,6,False,None,False,0.857,11,False
A10VLJT7V96D9W:3TY7ZAOG5G4W71B2ES11GKYZG3QK0J,porous_3_a,porous_3,porous,a,3,True,None,True,0.295,12,False
A10VLJT7V96D9W:3TY7ZAOG5G4W71B2ES11GKYZG3QK0J,complex_5_b,complex_5,complex,b,5,False,None,False,0.529,13,False
A10VLJT7V96D9W:3TY7ZAOG5G4W71B2ES11GKYZG3QK0J,stopper_1_a,stopper_1,stopper,a,1,True,Rev,True,0.378,14,False
A10VLJT7V96D9W:3TY7ZAOG5G4W71B2ES11GKYZG3QK0J,size_2_c,size_2,size,c,2,True,Fwd,True,0.113,15,False
A10VLJT7V96D9W:3TY7ZAOG5G4W71B2ES11GKYZG3QK0J,size_4_c,size_4,size,c,4,True,Fwd,True,0.054,16,False
A10VLJT7V96D9W:3TY7ZAOG5G4W71B2ES11GKYZG3QK0J,porous_5_a,porous_5,porous,a,5,False,None,False,0.312,17,False
A10VLJT7V96D9W:3TY7ZAOG5G4W71B2ES11GKYZG3QK0J,complex_2_b,complex_2,complex,b,2,True,Rev,False,0.67,18,False
A10VLJT7V96D9W:3TY7ZAOG5G4W71B2ES11GKYZG3QK0J,porous_1_a,porous_1,porous,a,1,False,Rev,False,0.177,19,False
A10VLJT7V96D9W:3TY7ZAOG5G4W71B2ES11GKYZG3QK0J,porous_6_a,porous_6,porous,a,6,True,Fwd,True,0.137,20,False
A10VLJT7V96D9W:3TY7ZAOG5G4W71B2ES11GKYZG3QK0J,porous_2_a,porous_2,porous,a,2,False,Rev,False,0.217,21,False
A10VLJT7V96D9W:3TY7ZAOG5G4W71B2ES11GKYZG3QK0J,stopper_3_a,stopper_3,stopper,a,3,True,None,True,0.326,22,False
A10VLJT7V96D9W:3TY7ZAOG5G4W71B2ES11GKYZG3QK0J,size_3_c,size_3,size,c,3,False,Fwd,False,0.384,23,False
A115UFR6VA6OM1:3G0WWMR1UW4L3014S3NWNI6LN27QN6,stopper_4_a,stopper_4,stopper,a,4,True,None,True,1.446,0,False
A115UFR6VA6OM1:3G0WWMR1UW4L3014S3NWNI6LN27QN6,stopper_5_a,stopper_5,stopper,a,5,True,Fwd,True,0.707,1,False
A115UFR6VA6OM1:3G0WWMR1UW4L3014S3NWNI6LN27QN6,stopper_2_a,stopper_2,stopper,a,2,False,Fwd,False,1.032,2,False
A115UFR6VA6OM1:3G0WWMR1UW4L3014S3NWNI6LN27QN6,complex_4_b,complex_4,complex,b,4,True,Rev,True,0.45,3,False
A115UFR6VA6OM1:3G0WWMR1UW4L3014S3NWNI6LN27QN6,porous_3_a,porous_3,porous,a,3,False,Rev,False,1.03,4,False
A115UFR6VA6OM1:3G0WWMR1UW4L3014S3NWNI6LN27QN6,size_5_c,size_5,size,c,5,True,Rev,True,1.187,5,False
A115UFR6VA6OM1:3G0WWMR1UW4L3014S3NWNI6LN27QN6,complex_3_b,complex_3,complex,b,3,True,Fwd,False,0.554,6,False
A115UFR6VA6OM1:3G0WWMR1UW4L3014S3NWNI6LN27QN6,complex_5_b,complex_5,complex,b,5,True,None,True,0.955,7,False
A115UFR6VA6OM1:3G0WWMR1UW4L3014S3NWNI6LN27QN6,size_4_c,size_4,size,c,4,False,None,False,0.781,8,False
A115UFR6VA6OM1:3G0WWMR1UW4L3014S3NWNI6LN27QN6,porous_6_a,porous_6,porous,a,6,False,None,False,0.837,9,False
A115UFR6VA6OM1:3G0WWMR1UW4L3014S3NWNI6LN27QN6,porous_2_a,porous_2,porous,a,2,True,Rev,True,0.817,10,False
A115UFR6VA6OM1:3G0WWMR1UW4L3014S3NWNI6LN27QN6,size_1_c,size_1,size,c,1,True,Fwd,True,0.531,11,False
A115UFR6VA6OM1:3G0WWMR1UW4L3014S3NWNI6LN27QN6,stopper_6_a,stopper_6,stopper,a,6,False,Fwd,False,0.815,12,False
A115UFR6VA6OM1:3G0WWMR1UW4L3014S3NWNI6LN27QN6,complex_1_b,complex_1,complex,b,1,False,Rev,False,0.843,13,False
A115UFR6VA6OM1:3G0WWMR1UW4L3014S3NWNI6LN27QN6,stopper_1_a,stopper_1,stopper,a,1,False,Fwd,False,0.712,14,False
A115UFR6VA6OM1:3G0WWMR1UW4L3014S3NWNI6LN27QN6,size_6_c,size_6,size,c,6,False,Rev,False,0.633,15,False
A115UFR6VA6OM1:3G0WWMR1UW4L3014S3NWNI6LN27QN6,size_3_c,size_3,size,c,3,True,Fwd,True,0.536,16,False
A115UFR6VA6OM1:3G0WWMR1UW4L3014S3NWNI6LN27QN6,complex_6_b,complex_6,complex,b,6,True,None,True,1.01,17,False
A115UFR6VA6OM1:3G0WWMR1UW4L3014S3NWNI6LN27QN6,porous_4_a,porous_4,porous,a,4,False,None,False,0.866,18,False
A115UFR6VA6OM1:3G0WWMR1UW4L3014S3NWNI6LN27QN6,porous_1_a,porous_1,porous,a,1,True,Rev,True,0.681,19,False
A115UFR6VA6OM1:3G0WWMR1UW4L3014S3NWNI6LN27QN6,porous_5_a,porous_5,porous,a,5,True,None,True,0.728,20,False
A115UFR6VA6OM1:3G0WWMR1UW4L3014S3NWNI6LN27QN6,stopper_3_a,stopper_3,stopper,a,3,False,Rev,True,0.818,21,False
A115UFR6VA6OM1:3G0WWMR1UW4L3014S3NWNI6LN27QN6,size_2_c,size_2,size,c,2,False,None,False,0.571,22,False
A115UFR6VA6OM1:3G0WWMR1UW4L3014S3NWNI6LN27QN6,complex_2_b,complex_2,complex,b,2,False,Fwd,True,1.066,23,False
A13NXSZ9D5NTHN:358010RM5FDIK2BPG84FR7WR68WVXP,complex_1_b,complex_1,complex,b,1,False,None,,-1.0,0,False
A13NXSZ9D5NTHN:358010RM5FDIK2BPG84FR7WR68WVXP,stopper_2_a,stopper_2,stopper,a,2,False,Rev,False,0.354,1,False
A13NXSZ9D5NTHN:358010RM5FDIK2BPG84FR7WR68WVXP,porous_6_a,porous_6,porous,a,6,False,Fwd,False,0.203,2,False
A13NXSZ9D5NTHN:358010RM5FDIK2BPG84FR7WR68WVXP,porous_4_a,porous_4,porous,a,4,False,Fwd,False,0.28,3,False
A13NXSZ9D5NTHN:358010RM5FDIK2BPG84FR7WR68WVXP,stopper_6_a,stopper_6,stopper,a,6,False,Rev,False,0.425,4,False
A13NXSZ9D5NTHN:358010RM5FDIK2BPG84FR7WR68WVXP,size_3_c,size_3,size,c,3,True,Rev,True,0.996,5,False
A13NXSZ9D5NTHN:358010RM5FDIK2BPG84FR7WR68WVXP,complex_6_b,complex_6,complex,b,6,True,Fwd,True,0.582,6,False
A13NXSZ9D5NTHN:358010RM5FDIK2BPG84FR7WR68WVXP,complex_5_b,complex_5,complex,b,5,True,Fwd,True,0.458,7,False
A13NXSZ9D5NTHN:358010RM5FDIK2BPG84FR7WR68WVXP,porous_5_a,porous_5,porous,a,5,True,Fwd,True,0.533,8,False
A13NXSZ9D5NTHN:358010RM5FDIK2BPG84FR7WR68WVXP,stopper_3_a,stopper_3,stopper,a,3,False,None,False,0.345,9,False
A13NXSZ9D5NTHN:358010RM5FDIK2BPG84FR7WR68WVXP,complex_2_b,complex_2,complex,b,2,False,Rev,False,0.365,10,False
A13NXSZ9D5NTHN:358010RM5FDIK2BPG84FR7WR68WVXP,size_1_c,size_1,size,c,1,True,Rev,True,0.299,11,False
A13NXSZ9D5NTHN:358010RM5FDIK2BPG84FR7WR68WVXP,porous_1_a,porous_1,porous,a,1,True,None,True,0.244,12,False
A13NXSZ9D5NTHN:358010RM5FDIK2BPG84FR7WR68WVXP,complex_4_b,complex_4,complex,b,4,True,None,True,0.196,13,False
A13NXSZ9D5NTHN:358010RM5FDIK2BPG84FR7WR68WVXP,size_2_c,size_2,size,c,2,False,Fwd,False,0.109,14,False
A13NXSZ9D5NTHN:358010RM5FDIK2BPG84FR7WR68WVXP,stopper_5_a,stopper_5,stopper,a,5,True,Rev,True,0.267,15,False
A13NXSZ9D5NTHN:358010RM5FDIK2BPG84FR7WR68WVXP,porous_3_a,porous_3,porous,a,3,False,None,False,0.117,16,False
A13NXSZ9D5NTHN:358010RM5FDIK2BPG84FR7WR68WVXP,size_5_c,size_5,size,c,5,True,None,True,0.341,17,False
A13NXSZ9D5NTHN:358010RM5FDIK2BPG84FR7WR68WVXP,stopper_4_a,stopper_4,stopper,a,4,True,Fwd,True,0.081,18,False
A13NXSZ9D5NTHN:358010RM5FDIK2BPG84FR7WR68WVXP,porous_2_a,porous_2,porous,a,2,True,None,True,0.339,19,False
A13NXSZ9D5NTHN:358010RM5FDIK2BPG84FR7WR68WVXP,size_6_c,size_6,size,c,6,False,None,False,0.229,20,False
A13NXSZ9D5NTHN:358010RM5FDIK2BPG84FR7WR68WVXP,stopper_1_a,stopper_1,stopper,a,1,False,Rev,False,0.211,21,False
A13NXSZ9D5NTHN:358010RM5FDIK2BPG84FR7WR68WVXP,complex_3_b,complex_3,complex,b,3,True,Rev,True,0.37,22,False
A13NXSZ9D5NTHN:358010RM5FDIK2BPG84FR7WR68WVXP,size_4_c,size_4,size,c,4,False,Fwd,False,0.108,23,False
A140QSCUDO8CPW:3MD9PLUKKJYUHS2VFZ69EBIPS5UZNB,porous_5_a,porous_5,porous,a,5,True,None,True,0.99,0,False
A140QSCUDO8CPW:3MD9PLUKKJYUHS2VFZ69EBIPS5UZNB,porous_1_a,porous_1,porous,a,1,True,Rev,False,1.989,1,False
A140QSCUDO8CPW:3MD9PLUKKJYUHS2VFZ69EBIPS5UZNB,size_5_c,size_5,size,c,5,True,Rev,False,1.182,2,False
A140QSCUDO8CPW:3MD9PLUKKJYUHS2VFZ69EBIPS5UZNB,complex_3_b,complex_3,complex,b,3,True,Fwd,True,1.172,3,False
A140QSCUDO8CPW:3MD9PLUKKJYUHS2VFZ69EBIPS5UZNB,stopper_2_a,stopper_2,stopper,a,2,False,Fwd,False,0.332,4,False
A140QSCUDO8CPW:3MD9PLUKKJYUHS2VFZ69EBIPS5UZNB,stopper_4_a,stopper_4,stopper,a,4,True,None,True,0.223,5,False
A140QSCUDO8CPW:3MD9PLUKKJYUHS2VFZ69EBIPS5UZNB,size_2_c,size_2,size,c,2,False,None,False,0.327,6,False
A140QSCUDO8CPW:3MD9PLUKKJYUHS2VFZ69EBIPS5UZNB,size_4_c,size_4,size,c,4,False,None,False,0.453,7,False
A140QSCUDO8CPW:3MD9PLUKKJYUHS2VFZ69EBIPS5UZNB,complex_2_b,complex_2,complex,b,2,False,Fwd,False,0.375,8,False
A140QSCUDO8CPW:3MD9PLUKKJYUHS2VFZ69EBIPS5UZNB,porous_6_a,porous_6,porous,a,6,False,None,False,0.142,9,False
A140QSCUDO8CPW:3MD9PLUKKJYUHS2VFZ69EBIPS5UZNB,porous_3_a,porous_3,porous,a,3,False,Rev,False,0.311,10,False
A140QSCUDO8CPW:3MD9PLUKKJYUHS2VFZ69EBIPS5UZNB,stopper_5_a,stopper_5,stopper,a,5,True,Fwd,True,1.024,11,False
A140QSCUDO8CPW:3MD9PLUKKJYUHS2VFZ69EBIPS5UZNB,size_3_c,size_3,size,c,3,True,Fwd,True,0.336,12,False
A140QSCUDO8CPW:3MD9PLUKKJYUHS2VFZ69EBIPS5UZNB,porous_2_a,porous_2,porous,a,2,True,Rev,True,0.286,13,False
A140QSCUDO8CPW:3MD9PLUKKJYUHS2VFZ69EBIPS5UZNB,complex_5_b,complex_5,complex,b,5,True,None,True,0.672,14,False
A140QSCUDO8CPW:3MD9PLUKKJYUHS2VFZ69EBIPS5UZNB,complex_1_b,complex_1,complex,b,1,False,Rev,False,0.621,15,False
A140QSCUDO8CPW:3MD9PLUKKJYUHS2VFZ69EBIPS5UZNB,stopper_6_a,stopper_6,stopper,a,6,False,Fwd,False,0.319,16,False
A140QSCUDO8CPW:3MD9PLUKKJYUHS2VFZ69EBIPS5UZNB,complex_4_b,complex_4,complex,b,4,True,Rev,True,0.759,17,False
A140QSCUDO8CPW:3MD9PLUKKJYUHS2VFZ69EBIPS5UZNB,size_6_c,size_6,size,c,6,False,Rev,False,0.829,18,False
A140QSCUDO8CPW:3MD9PLUKKJYUHS2VFZ69EBIPS5UZNB,stopper_1_a,stopper_1,stopper,a,1,False,Fwd,False,0.725,19,False
A140QSCUDO8CPW:3MD9PLUKKJYUHS2VFZ69EBIPS5UZNB,complex_6_b,complex_6,complex,b,6,True,None,True,0.5,20,False
A140QSCUDO8CPW:3MD9PLUKKJYUHS2VFZ69EBIPS5UZNB,porous_4_a,porous_4,porous,a,4,False,None,False,0.468,21,False
A140QSCUDO8CPW:3MD9PLUKKJYUHS2VFZ69EBIPS5UZNB,stopper_3_a,stopper_3,stopper,a,3,False,Rev,False,0.203,22,False
A140QSCUDO8CPW:3MD9PLUKKJYUHS2VFZ69EBIPS5UZNB,size_1_c,size_1,size,c,1,True,Fwd,True,0.507,23,False
A14CPQKP46VJQK:3V0Z7YWSIZKHJM8SSJJM1H2VTZW2VM,porous_1_a,porous_1,porous,a,1,True,None,,-1.0,0,False
A14CPQKP46VJQK:3V0Z7YWSIZKHJM8SSJJM1H2VTZW2VM,size_2_c,size_2,size,c,2,False,Fwd,False,1.466,1,False
A14CPQKP46VJQK:3V0Z7YWSIZKHJM8SSJJM1H2VTZW2VM,complex_5_b,complex_5,complex,b,5,True,Fwd,False,2.127,2,False
A14CPQKP46VJQK:3V0Z7YWSIZKHJM8SSJJM1H2VTZW2VM,porous_6_a,porous_6,porous,a,6,False,Fwd,True,1.702,3,False
A14CPQKP46VJQK:3V0Z7YWSIZKHJM8SSJJM1H2VTZW2VM,porous_3_a,porous_3,porous,a,3,False,None,True,2.199,4,False
A14CPQKP46VJQK:3V0Z7YWSIZKHJM8SSJJM1H2VTZW2VM,size_3_c,size_3,size,c,3,True,Rev,,-1.0,5,False
A14CPQKP46VJQK:3V0Z7YWSIZKHJM8SSJJM1H2VTZW2VM,size_6_c,size_6,size,c,6,False,None,,-1.0,6,False
A14CPQKP46VJQK:3V0Z7YWSIZKHJM8SSJJM1H2VTZW2VM,size_5_c,size_5,size,c,5,True,None,,-1.0,7,False
A14CPQKP46VJQK:3V0Z7YWSIZKHJM8SSJJM1H2VTZW2VM,complex_3_b,complex_3,complex,b,3,True,Rev,False,1.136,8,False
A14CPQKP46VJQK:3V0Z7YWSIZKHJM8SSJJM1H2VTZW2VM,porous_4_a,porous_4,porous,a,4,False,Fwd,,-1.0,9,False
A14CPQKP46VJQK:3V0Z7YWSIZKHJM8SSJJM1H2VTZW2VM,complex_1_b,complex_1,complex,b,1,False,None,False,1.977,10,False
A14CPQKP46VJQK:3V0Z7YWSIZKHJM8SSJJM1H2VTZW2VM,stopper_6_a,stopper_6,stopper,a,6,False,Rev,False,1.111,11,False
A14CPQKP46VJQK:3V0Z7YWSIZKHJM8SSJJM1H2VTZW2VM,stopper_2_a,stopper_2,stopper,a,2,False,Rev,False,1.236,12,False
A14CPQKP46VJQK:3V0Z7YWSIZKHJM8SSJJM1H2VTZW2VM,porous_5_a,porous_5,porous,a,5,True,Fwd,True,1.559,13,False
A14CPQKP46VJQK:3V0Z7YWSIZKHJM8SSJJM1H2VTZW2VM,complex_6_b,complex_6,complex,b,6,True,Fwd,False,1.798,14,False
A14CPQKP46VJQK:3V0Z7YWSIZKHJM8SSJJM1H2VTZW2VM,stopper_4_a,stopper_4,stopper,a,4,True,Fwd,True,1.085,15,False
A14CPQKP46VJQK:3V0Z7YWSIZKHJM8SSJJM1H2VTZW2VM,complex_2_b,complex_2,complex,b,2,False,Rev,False,1.257,16,False
A14CPQKP46VJQK:3V0Z7YWSIZKHJM8SSJJM1H2VTZW2VM,size_4_c,size_4,size,c,4,False,Fwd,False,1.025,17,False
A14CPQKP46VJQK:3V0Z7YWSIZKHJM8SSJJM1H2VTZW2VM,complex_4_b,complex_4,complex,b,4,True,None,True,1.154,18,False
A14CPQKP46VJQK:3V0Z7YWSIZKHJM8SSJJM1H2VTZW2VM,stopper_3_a,stopper_3,stopper,a,3,False,None,False,1.035,19,False
A14CPQKP46VJQK:3V0Z7YWSIZKHJM8SSJJM1H2VTZW2VM,porous_2_a,porous_2,porous,a,2,True,None,True,0.878,20,False
A14CPQKP46VJQK:3V0Z7YWSIZKHJM8SSJJM1H2VTZW2VM,stopper_5_a,stopper_5,stopper,a,5,True,Rev,True,0.47,21,False
A14CPQKP46VJQK:3V0Z7YWSIZKHJM8SSJJM1H2VTZW2VM,size_1_c,size_1,size,c,1,True,Rev,True,1.042,22,False
A14CPQKP46VJQK:3V0Z7YWSIZKHJM8SSJJM1H2VTZW2VM,stopper_1_a,stopper_1,stopper,a,1,False,Rev,False,1.004,23,False
A1727A5VJOZAMR:3I02618YA1QDYEKYPRKT1885Q2GPU8,size_3_c,size_3,size,c,3,False,None,False,0.177,0,False
A1727A5VJOZAMR:3I02618YA1QDYEKYPRKT1885Q2GPU8,size_6_c,size_6,size,c,6,True,Rev,True,0.342,1,False
A1727A5VJOZAMR:3I02618YA1QDYEKYPRKT1885Q2GPU8,size_4_c,size_4,size,c,4,True,None,True,0.013,2,False
A1727A5VJOZAMR:3I02618YA1QDYEKYPRKT1885Q2GPU8,stopper_4_a,stopper_4,stopper,a,4,False,Rev,True,0.299,3,False
A1727A5VJOZAMR:3I02618YA1QDYEKYPRKT1885Q2GPU8,stopper_5_a,stopper_5,stopper,a,5,False,None,True,0.169,4,False
A1727A5VJOZAMR:3I02618YA1QDYEKYPRKT1885Q2GPU8,stopper_3_a,stopper_3,stopper,a,3,True,Rev,True,0.125,5,False
A1727A5VJOZAMR:3I02618YA1QDYEKYPRKT1885Q2GPU8,complex_6_b,complex_6,complex,b,6,False,Rev,True,0.0,6,False
A1727A5VJOZAMR:3I02618YA1QDYEKYPRKT1885Q2GPU8,stopper_1_a,stopper_1,stopper,a,1,True,Fwd,True,0.269,7,False
A1727A5VJOZAMR:3I02618YA1QDYEKYPRKT1885Q2GPU8,size_1_c,size_1,size,c,1,False,None,True,0.12,8,False
A1727A5VJOZAMR:3I02618YA1QDYEKYPRKT1885Q2GPU8,porous_4_a,porous_4,porous,a,4,True,None,True,0.468,9,False
A1727A5VJOZAMR:3I02618YA1QDYEKYPRKT1885Q2GPU8,porous_1_a,porous_1,porous,a,1,False,Fwd,True,0.146,10,False
A1727A5VJOZAMR:3I02618YA1QDYEKYPRKT1885Q2GPU8,porous_5_a,porous_5,porous,a,5,False,Rev,False,0.172,11,False
A1727A5VJOZAMR:3I02618YA1QDYEKYPRKT1885Q2GPU8,size_5_c,size_5,size,c,5,False,Fwd,False,0.016,12,False
A1727A5VJOZAMR:3I02618YA1QDYEKYPRKT1885Q2GPU8,complex_2_b,complex_2,complex,b,2,True,Fwd,True,0.004,13,False
A1727A5VJOZAMR:3I02618YA1QDYEKYPRKT1885Q2GPU8,stopper_2_a,stopper_2,stopper,a,2,True,Fwd,True,0.144,14,False
A1727A5VJOZAMR:3I02618YA1QDYEKYPRKT1885Q2GPU8,porous_6_a,porous_6,porous,a,6,True,None,False,0.046,15,False
A1727A5VJOZAMR:3I02618YA1QDYEKYPRKT1885Q2GPU8,stopper_6_a,stopper_6,stopper,a,6,True,Fwd,True,0.149,16,False
A1727A5VJOZAMR:3I02618YA1QDYEKYPRKT1885Q2GPU8,complex_3_b,complex_3,complex,b,3,False,None,True,0.173,17,False
A1727A5VJOZAMR:3I02618YA1QDYEKYPRKT1885Q2GPU8,complex_1_b,complex_1,complex,b,1,True,Rev,True,0.204,18,False
A1727A5VJOZAMR:3I02618YA1QDYEKYPRKT1885Q2GPU8,porous_2_a,porous_2,porous,a,2,False,Fwd,False,0.239,19,False
A1727A5VJOZAMR:3I02618YA1QDYEKYPRKT1885Q2GPU8,complex_4_b,complex_4,complex,b,4,False,Fwd,False,0.013,20,False
A1727A5VJOZAMR:3I02618YA1QDYEKYPRKT1885Q2GPU8,porous_3_a,porous_3,porous,a,3,True,Rev,False,0.044,21,False
A1727A5VJOZAMR:3I02618YA1QDYEKYPRKT1885Q2GPU8,size_2_c,size_2,size,c,2,True,None,True,0.238,22,False
A1727A5VJOZAMR:3I02618YA1QDYEKYPRKT1885Q2GPU8,complex_5_b,complex_5,complex,b,5,False,Rev,False,0.004,23,False
A1BSA7FVVJGZ15:3IJXV6UZ1Y3T105D82Z4N0K9XPHIRL,porous_2_a,porous_2,porous,a,2,False,Fwd,False,0.253,0,False
A1BSA7FVVJGZ15:3IJXV6UZ1Y3T105D82Z4N0K9XPHIRL,complex_1_b,complex_1,complex,b,1,True,Rev,False,0.19,1,False
A1BSA7FVVJGZ15:3IJXV6UZ1Y3T105D82Z4N0K9XPHIRL,stopper_2_a,stopper_2,stopper,a,2,True,Fwd,True,0.475,2,False
A1BSA7FVVJGZ15:3IJXV6UZ1Y3T105D82Z4N0K9XPHIRL,stopper_5_a,stopper_5,stopper,a,5,False,None,False,0.383,3,False
A1BSA7FVVJGZ15:3IJXV6UZ1Y3T105D82Z4N0K9XPHIRL,porous_6_a,porous_6,porous,a,6,True,None,True,0.457,4,False
A1BSA7FVVJGZ15:3IJXV6UZ1Y3T105D82Z4N0K9XPHIRL,stopper_6_a,stopper_6,stopper,a,6,True,Fwd,False,0.131,5,False
A1BSA7FVVJGZ15:3IJXV6UZ1Y3T105D82Z4N0K9XPHIRL,size_2_c,size_2,size,c,2,True,None,True,0.565,6,False
A1BSA7FVVJGZ15:3IJXV6UZ1Y3T105D82Z4N0K9XPHIRL,porous_3_a,porous_3,porous,a,3,True,Rev,True,0.544,7,False
A1BSA7FVVJGZ15:3IJXV6UZ1Y3T105D82Z4N0K9XPHIRL,complex_3_b,complex_3,complex,b,3,False,None,True,0.292,8,False
A1BSA7FVVJGZ15:3IJXV6UZ1Y3T105D82Z4N0K9XPHIRL,complex_4_b,complex_4,complex,b,4,False,Fwd,False,0.256,9,False
A1BSA7FVVJGZ15:3IJXV6UZ1Y3T105D82Z4N0K9XPHIRL,stopper_3_a,stopper_3,stopper,a,3,True,Rev,False,0.043,10,False
A1BSA7FVVJGZ15:3IJXV6UZ1Y3T105D82Z4N0K9XPHIRL,size_6_c,size_6,size,c,6,True,Rev,True,0.412,11,False
A1BSA7FVVJGZ15:3IJXV6UZ1Y3T105D82Z4N0K9XPHIRL,size_3_c,size_3,size,c,3,False,None,False,0.214,12,False
A1BSA7FVVJGZ15:3IJXV6UZ1Y3T105D82Z4N0K9XPHIRL,complex_2_b,complex_2,complex,b,2,True,Fwd,True,0.228,13,False
A1BSA7FVVJGZ15:3IJXV6UZ1Y3T105D82Z4N0K9XPHIRL,porous_4_a,porous_4,porous,a,4,True,None,True,0.292,14,False
A1BSA7FVVJGZ15:3IJXV6UZ1Y3T105D82Z4N0K9XPHIRL,complex_5_b,complex_5,complex,b,5,False,Rev,False,0.278,15,False
A1BSA7FVVJGZ15:3IJXV6UZ1Y3T105D82Z4N0K9XPHIRL,porous_1_a,porous_1,porous,a,1,False,Fwd,False,0.182,16,False
A1BSA7FVVJGZ15:3IJXV6UZ1Y3T105D82Z4N0K9XPHIRL,size_4_c,size_4,size,c,4,True,None,True,0.199,17,False
A1BSA7FVVJGZ15:3IJXV6UZ1Y3T105D82Z4N0K9XPHIRL,stopper_1_a,stopper_1,stopper,a,1,True,Fwd,False,0.092,18,False
A1BSA7FVVJGZ15:3IJXV6UZ1Y3T105D82Z4N0K9XPHIRL,size_1_c,size_1,size,c,1,False,None,False,0.462,19,False
A1BSA7FVVJGZ15:3IJXV6UZ1Y3T105D82Z4N0K9XPHIRL,porous_5_a,porous_5,porous,a,5,False,Rev,False,0.486,20,False
A1BSA7FVVJGZ15:3IJXV6UZ1Y3T105D82Z4N0K9XPHIRL,complex_6_b,complex_6,complex,b,6,False,Rev,True,0.47,21,False
A1BSA7FVVJGZ15:3IJXV6UZ1Y3T105D82Z4N0K9XPHIRL,size_5_c,size_5,size,c,5,False,Fwd,False,0.281,22,False
A1BSA7FVVJGZ15:3IJXV6UZ1Y3T105D82Z4N0K9XPHIRL,stopper_4_a,stopper_4,stopper,a,4,False,Rev,False,0.212,23,False
A1BV685HDP73YP:333U7HK6IAZVV16E8JPKUCI5V4VDJ4,porous_6_a,porous_6,porous,a,6,True,Rev,,-1.0,0,False
A1BV685HDP73YP:333U7HK6IAZVV16E8JPKUCI5V4VDJ4,stopper_2_a,stopper_2,stopper,a,2,True,None,,-1.0,1,False
A1BV685HDP73YP:333U7HK6IAZVV16E8JPKUCI5V4VDJ4,porous_4_a,porous_4,porous,a,4,True,Rev,,-1.0,2,False
A1BV685HDP73YP:333U7HK6IAZVV16E8JPKUCI5V4VDJ4,stopper_5_a,stopper_5,stopper,a,5,False,Rev,True,0.557,3,False
A1BV685HDP73YP:333U7HK6IAZVV16E8JPKUCI5V4VDJ4,complex_2_b,complex_2,complex,b,2,True,None,False,1.748,4,False
A1BV685HDP73YP:333U7HK6IAZVV16E8JPKUCI5V4VDJ4,stopper_3_a,stopper_3,stopper,a,3,True,Fwd,True,0.008,5,False
A1BV685HDP73YP:333U7HK6IAZVV16E8JPKUCI5V4VDJ4,size_5_c,size_5,size,c,5,False,None,False,0.864,6,False
A1BV685HDP73YP:333U7HK6IAZVV16E8JPKUCI5V4VDJ4,porous_5_a,porous_5,porous,a,5,False,Fwd,False,0.493,7,False
A1BV685HDP73YP:333U7HK6IAZVV16E8JPKUCI5V4VDJ4,complex_3_b,complex_3,complex,b,3,False,Rev,False,1.155,8,False
A1BV685HDP73YP:333U7HK6IAZVV16E8JPKUCI5V4VDJ4,porous_1_a,porous_1,porous,a,1,False,None,False,0.223,9,False
A1BV685HDP73YP:333U7HK6IAZVV16E8JPKUCI5V4VDJ4,size_1_c,size_1,size,c,1,False,Rev,False,0.438,10,False
A1BV685HDP73YP:333U7HK6IAZVV16E8JPKUCI5V4VDJ4,stopper_1_a,stopper_1,stopper,a,1,True,None,,-1.0,11,False
A1BV685HDP73YP:333U7HK6IAZVV16E8JPKUCI5V4VDJ4,stopper_6_a,stopper_6,stopper,a,6,True,None,True,0.343,12,False
A1BV685HDP73YP:333U7HK6IAZVV16E8JPKUCI5V4VDJ4,complex_1_b,complex_1,complex,b,1,True,Fwd,True,0.291,13,False
A1BV685HDP73YP:333U7HK6IAZVV16E8JPKUCI5V4VDJ4,complex_5_b,complex_5,complex,b,5,False,Fwd,False,0.439,14,False
A1BV685HDP73YP:333U7HK6IAZVV16E8JPKUCI5V4VDJ4,size_4_c,size_4,size,c,4,True,Rev,True,1.683,15,False
A1BV685HDP73YP:333U7HK6IAZVV16E8JPKUCI5V4VDJ4,porous_2_a,porous_2,porous,a,2,False,None,False,0.461,16,False
A1BV685HDP73YP:333U7HK6IAZVV16E8JPKUCI5V4VDJ4,complex_6_b,complex_6,complex,b,6,False,Fwd,False,2.388,17,False
A1BV685HDP73YP:333U7HK6IAZVV16E8JPKUCI5V4VDJ4,size_6_c,size_6,size,c,6,True,Fwd,True,0.468,18,False
A1BV685HDP73YP:333U7HK6IAZVV16E8JPKUCI5V4VDJ4,size_2_c,size_2,size,c,2,True,Rev,True,0.292,19,False
A1BV685HDP73YP:333U7HK6IAZVV16E8JPKUCI5V4VDJ4,complex_4_b,complex_4,complex,b,4,False,None,False,0.764,20,False
A1BV685HDP73YP:333U7HK6IAZVV16E8JPKUCI5V4VDJ4,porous_3_a,porous_3,porous,a,3,True,Fwd,True,0.352,21,False
A1BV685HDP73YP:333U7HK6IAZVV16E8JPKUCI5V4VDJ4,stopper_4_a,stopper_4,stopper,a,4,False,Fwd,False,0.076,22,False
A1BV685HDP73YP:333U7HK6IAZVV16E8JPKUCI5V4VDJ4,size_3_c,size_3,size,c,3,False,Rev,False,0.252,23,False
A1DJNUJZN8FE7N:3SKRO2GZ72BWEQWKAB51UPH9LVWK1M,complex_4_b,complex_4,complex,b,4,True,Fwd,True,0.514,0,False
A1DJNUJZN8FE7N:3SKRO2GZ72BWEQWKAB51UPH9LVWK1M,complex_5_b,complex_5,complex,b,5,True,Rev,True,0.575,1,False
A1DJNUJZN8FE7N:3SKRO2GZ72BWEQWKAB51UPH9LVWK1M,porous_2_a,porous_2,porous,a,2,True,Fwd,True,0.331,2,False
A1DJNUJZN8FE7N:3SKRO2GZ72BWEQWKAB51UPH9LVWK1M,size_1_c,size_1,size,c,1,True,None,True,0.351,3,False
A1DJNUJZN8FE7N:3SKRO2GZ72BWEQWKAB51UPH9LVWK1M,stopper_1_a,stopper_1,stopper,a,1,False,None,False,0.236,4,False
A1DJNUJZN8FE7N:3SKRO2GZ72BWEQWKAB51UPH9LVWK1M,complex_1_b,complex_1,complex,b,1,False,Fwd,False,0.466,5,False
A1DJNUJZN8FE7N:3SKRO2GZ72BWEQWKAB51UPH9LVWK1M,stopper_3_a,stopper_3,stopper,a,3,False,Fwd,False,0.36,6,False
A1DJNUJZN8FE7N:3SKRO2GZ72BWEQWKAB51UPH9LVWK1M,stopper_5_a,stopper_5,stopper,a,5,True,None,True,0.346,7,False
A1DJNUJZN8FE7N:3SKRO2GZ72BWEQWKAB51UPH9LVWK1M,porous_4_a,porous_4,porous,a,4,False,Rev,False,0.356,8,False
A1DJNUJZN8FE7N:3SKRO2GZ72BWEQWKAB51UPH9LVWK1M,size_5_c,size_5,size,c,5,True,Fwd,True,0.333,9,False
A1DJNUJZN8FE7N:3SKRO2GZ72BWEQWKAB51UPH9LVWK1M,size_3_c,size_3,size,c,3,True,None,True,0.386,10,False
A1DJNUJZN8FE7N:3SKRO2GZ72BWEQWKAB51UPH9LVWK1M,size_4_c,size_4,size,c,4,False,Rev,False,0.321,11,False
A1DJNUJZN8FE7N:3SKRO2GZ72BWEQWKAB51UPH9LVWK1M,size_6_c,size_6,size,c,6,False,Fwd,False,0.252,12,False
A1DJNUJZN8FE7N:3SKRO2GZ72BWEQWKAB51UPH9LVWK1M,complex_2_b,complex_2,complex,b,2,False,None,False,0.45,13,False
A1DJNUJZN8FE7N:3SKRO2GZ72BWEQWKAB51UPH9LVWK1M,stopper_4_a,stopper_4,stopper,a,4,True,Rev,True,0.315,14,False
A1DJNUJZN8FE7N:3SKRO2GZ72BWEQWKAB51UPH9LVWK1M,porous_3_a,porous_3,porous,a,3,False,Fwd,False,0.321,15,False
A1DJNUJZN8FE7N:3SKRO2GZ72BWEQWKAB51UPH9LVWK1M,size_2_c,size_2,size,c,2,False,Rev,False,0.07,16,False
A1DJNUJZN8FE7N:3SKRO2GZ72BWEQWKAB51UPH9LVWK1M,complex_3_b,complex_3,complex,b,3,True,None,True,0.474,17,False
A1DJNUJZN8FE7N:3SKRO2GZ72BWEQWKAB51UPH9LVWK1M,porous_1_a,porous_1,porous,a,1,True,Fwd,True,0.308,18,False
A1DJNUJZN8FE7N:3SKRO2GZ72BWEQWKAB51UPH9LVWK1M,stopper_2_a,stopper_2,stopper,a,2,False,None,False,0.32,19,False
A1DJNUJZN8FE7N:3SKRO2GZ72BWEQWKAB51UPH9LVWK1M,complex_6_b,complex_6,complex,b,6,True,Rev,False,0.367,20,False
A1DJNUJZN8FE7N:3SKRO2GZ72BWEQWKAB51UPH9LVWK1M,porous_5_a,porous_5,porous,a,5,True,Rev,True,0.272,21,False
A1DJNUJZN8FE7N:3SKRO2GZ72BWEQWKAB51UPH9LVWK1M,porous_6_a,porous_6,porous,a,6,False,Rev,False,0.345,22,False
A1DJNUJZN8FE7N:3SKRO2GZ72BWEQWKAB51UPH9LVWK1M,stopper_6_a,stopper_6,stopper,a,6,False,None,False,0.425,23,False
A1DS5O8MSI3ZH0:3SB4CE2TJWFYSE8R5DDJVKIELYXXAS,porous_4_a,porous_4,porous,a,4,True,None,True,0.562,0,False
A1DS5O8MSI3ZH0:3SB4CE2TJWFYSE8R5DDJVKIELYXXAS,porous_5_a,porous_5,porous,a,5,False,Rev,False,0.147,1,False
A1DS5O8MSI3ZH0:3SB4CE2TJWFYSE8R5DDJVKIELYXXAS,size_2_c,size_2,size,c,2,True,None,True,0.637,2,False
A1DS5O8MSI3ZH0:3SB4CE2TJWFYSE8R5DDJVKIELYXXAS,porous_3_a,porous_3,porous,a,3,True,Rev,True,0.033,3,False
A1DS5O8MSI3ZH0:3SB4CE2TJWFYSE8R5DDJVKIELYXXAS,porous_6_a,porous_6,porous,a,6,True,None,True,0.136,4,False
A1DS5O8MSI3ZH0:3SB4CE2TJWFYSE8R5DDJVKIELYXXAS,porous_2_a,porous_2,porous,a,2,False,Fwd,False,0.129,5,False
A1DS5O8MSI3ZH0:3SB4CE2TJWFYSE8R5DDJVKIELYXXAS,size_6_c,size_6,size,c,6,True,Rev,True,0.268,6,False
A1DS5O8MSI3ZH0:3SB4CE2TJWFYSE8R5DDJVKIELYXXAS,complex_6_b,complex_6,complex,b,6,False,Rev,False,0.049,7,False
A1DS5O8MSI3ZH0:3SB4CE2TJWFYSE8R5DDJVKIELYXXAS,complex_2_b,complex_2,complex,b,2,True,Fwd,True,0.003,8,False
A1DS5O8MSI3ZH0:3SB4CE2TJWFYSE8R5DDJVKIELYXXAS,complex_5_b,complex_5,complex,b,5,False,Rev,False,0.202,9,False
A1DS5O8MSI3ZH0:3SB4CE2TJWFYSE8R5DDJVKIELYXXAS,stopper_3_a,stopper_3,stopper,a,3,True,Rev,False,0.753,10,False
A1DS5O8MSI3ZH0:3SB4CE2TJWFYSE8R5DDJVKIELYXXAS,stopper_2_a,stopper_2,stopper,a,2,True,Fwd,True,0.114,11,False
A1DS5O8MSI3ZH0:3SB4CE2TJWFYSE8R5DDJVKIELYXXAS,stopper_1_a,stopper_1,stopper,a,1,True,Fwd,True,0.042,12,False
A1DS5O8MSI3ZH0:3SB4CE2TJWFYSE8R5DDJVKIELYXXAS,complex_3_b,complex_3,complex,b,3,False,None,False,0.682,13,False
A1DS5O8MSI3ZH0:3SB4CE2TJWFYSE8R5DDJVKIELYXXAS,stopper_6_a,stopper_6,stopper,a,6,True,Fwd,,-1.0,14,False
A1DS5O8MSI3ZH0:3SB4CE2TJWFYSE8R5DDJVKIELYXXAS,size_4_c,size_4,size,c,4,True,None,True,0.43,15,False
A1DS5O8MSI3ZH0:3SB4CE2TJWFYSE8R5DDJVKIELYXXAS,porous_1_a,porous_1,porous,a,1,False,Fwd,False,0.142,16,False
A1DS5O8MSI3ZH0:3SB4CE2TJWFYSE8R5DDJVKIELYXXAS,stopper_5_a,stopper_5,stopper,a,5,False,None,False,0.147,17,False
A1DS5O8MSI3ZH0:3SB4CE2TJWFYSE8R5DDJVKIELYXXAS,size_3_c,size_3,size,c,3,False,None,False,0.162,18,False
A1DS5O8MSI3ZH0:3SB4CE2TJWFYSE8R5DDJVKIELYXXAS,stopper_4_a,stopper_4,stopper,a,4,False,Rev,False,0.033,19,False
A1DS5O8MSI3ZH0:3SB4CE2TJWFYSE8R5DDJVKIELYXXAS,size_5_c,size_5,size,c,5,False,Fwd,True,0.062,20,False
A1DS5O8MSI3ZH0:3SB4CE2TJWFYSE8R5DDJVKIELYXXAS,complex_1_b,complex_1,complex,b,1,True,Rev,False,0.15,21,False
A1DS5O8MSI3ZH0:3SB4CE2TJWFYSE8R5DDJVKIELYXXAS,size_1_c,size_1,size,c,1,False,None,False,0.138,22,False
A1DS5O8MSI3ZH0:3SB4CE2TJWFYSE8R5DDJVKIELYXXAS,complex_4_b,complex_4,complex,b,4,False,Fwd,False,0.739,23,False
A1DWDCD4CHM68O:30IQTZXKALQ2R1A9DBGQ6E61CDV0XG,complex_4_b,complex_4,complex,b,4,True,Rev,True,0.381,0,False
A1DWDCD4CHM68O:30IQTZXKALQ2R1A9DBGQ6E61CDV0XG,size_3_c,size_3,size,c,3,True,Fwd,True,0.82,1,False
A1DWDCD4CHM68O:30IQTZXKALQ2R1A9DBGQ6E61CDV0XG,stopper_1_a,stopper_1,stopper,a,1,False,Fwd,False,0.164,2,False
A1DWDCD4CHM68O:30IQTZXKALQ2R1A9DBGQ6E61CDV0XG,porous_6_a,porous_6,porous,a,6,False,None,False,0.237,3,False
A1DWDCD4CHM68O:30IQTZXKALQ2R1A9DBGQ6E61CDV0XG,size_5_c,size_5,size,c,5,True,Rev,False,0.376,4,False
A1DWDCD4CHM68O:30IQTZXKALQ2R1A9DBGQ6E61CDV0XG,stopper_3_a,stopper_3,stopper,a,3,False,Rev,False,0.241,5,False
A1DWDCD4CHM68O:30IQTZXKALQ2R1A9DBGQ6E61CDV0XG,porous_4_a,porous_4,porous,a,4,False,None,False,0.23,6,False
A1DWDCD4CHM68O:30IQTZXKALQ2R1A9DBGQ6E61CDV0XG,complex_3_b,complex_3,complex,b,3,True,Fwd,True,0.258,7,False
A1DWDCD4CHM68O:30IQTZXKALQ2R1A9DBGQ6E61CDV0XG,porous_5_a,porous_5,porous,a,5,True,None,False,0.104,8,False
A1DWDCD4CHM68O:30IQTZXKALQ2R1A9DBGQ6E61CDV0XG,stopper_6_a,stopper_6,stopper,a,6,False,Fwd,False,0.046,9,False
A1DWDCD4CHM68O:30IQTZXKALQ2R1A9DBGQ6E61CDV0XG,porous_2_a,porous_2,porous,a,2,True,Rev,True,0.111,10,False
A1DWDCD4CHM68O:30IQTZXKALQ2R1A9DBGQ6E61CDV0XG,stopper_4_a,stopper_4,stopper,a,4,True,None,True,0.688,11,False
A1DWDCD4CHM68O:30IQTZXKALQ2R1A9DBGQ6E61CDV0XG,stopper_2_a,stopper_2,stopper,a,2,False,Fwd,False,0.14,12,False
A1DWDCD4CHM68O:30IQTZXKALQ2R1A9DBGQ6E61CDV0XG,porous_1_a,porous_1,porous,a,1,True,Rev,True,0.202,13,False
A1DWDCD4CHM68O:30IQTZXKALQ2R1A9DBGQ6E61CDV0XG,size_2_c,size_2,size,c,2,False,None,False,0.148,14,False
A1DWDCD4CHM68O:30IQTZXKALQ2R1A9DBGQ6E61CDV0XG,stopper_5_a,stopper_5,stopper,a,5,True,Fwd,True,0.128,15,False
A1DWDCD4CHM68O:30IQTZXKALQ2R1A9DBGQ6E61CDV0XG,size_4_c,size_4,size,c,4,False,None,False,0.284,16,False
A1DWDCD4CHM68O:30IQTZXKALQ2R1A9DBGQ6E61CDV0XG,complex_2_b,complex_2,complex,b,2,False,Fwd,False,0.694,17,False
A1DWDCD4CHM68O:30IQTZXKALQ2R1A9DBGQ6E61CDV0XG,size_6_c,size_6,size,c,6,False,Rev,True,0.054,18,False
A1DWDCD4CHM68O:30IQTZXKALQ2R1A9DBGQ6E61CDV0XG,complex_6_b,complex_6,complex,b,6,True,None,True,0.493,19,False
A1DWDCD4CHM68O:30IQTZXKALQ2R1A9DBGQ6E61CDV0XG,complex_5_b,complex_5,complex,b,5,True,None,True,0.546,20,False
A1DWDCD4CHM68O:30IQTZXKALQ2R1A9DBGQ6E61CDV0XG,size_1_c,size_1,size,c,1,True,Fwd,True,0.17,21,False
A1DWDCD4CHM68O:30IQTZXKALQ2R1A9DBGQ6E61CDV0XG,porous_3_a,porous_3,porous,a,3,False,Rev,False,0.029,22,False
A1DWDCD4CHM68O:30IQTZXKALQ2R1A9DBGQ6E61CDV0XG,complex_1_b,complex_1,complex,b,1,False,Rev,False,0.095,23,False
A1KEA2Z47S3UPI:3DIP6YHAPDCB3QOVDA3DB4RCF4L8EP,porous_5_a,porous_5,porous,a,5,False,Fwd,False,0.592,0,False
A1KEA2Z47S3UPI:3DIP6YHAPDCB3QOVDA3DB4RCF4L8EP,stopper_4_a,stopper_4,stopper,a,4,False,Fwd,False,0.256,1,False
A1KEA2Z47S3UPI:3DIP6YHAPDCB3QOVDA3DB4RCF4L8EP,complex_2_b,complex_2,complex,b,2,True,None,True,0.764,2,False
A1KEA2Z47S3UPI:3DIP6YHAPDCB3QOVDA3DB4RCF4L8EP,porous_3_a,porous_3,porous,a,3,True,Fwd,True,0.59,3,False
A1KEA2Z47S3UPI:3DIP6YHAPDCB3QOVDA3DB4RCF4L8EP,size_4_c,size_4,size,c,4,True,Rev,True,0.423,4,False
A1KEA2Z47S3UPI:3DIP6YHAPDCB3QOVDA3DB4RCF4L8EP,stopper_1_a,stopper_1,stopper,a,1,True,None,True,0.634,5,False
A1KEA2Z47S3UPI:3DIP6YHAPDCB3QOVDA3DB4RCF4L8EP,porous_6_a,porous_6,porous,a,6,True,Rev,True,0.334,6,False
A1KEA2Z47S3UPI:3DIP6YHAPDCB3QOVDA3DB4RCF4L8EP,complex_1_b,complex_1,complex,b,1,True,Fwd,False,0.705,7,False
A1KEA2Z47S3UPI:3DIP6YHAPDCB3QOVDA3DB4RCF4L8EP,size_5_c,size_5,size,c,5,False,None,True,0.517,8,False
A1KEA2Z47S3UPI:3DIP6YHAPDCB3QOVDA3DB4RCF4L8EP,size_1_c,size_1,size,c,1,False,Rev,False,0.478,9,False
A1KEA2Z47S3UPI:3DIP6YHAPDCB3QOVDA3DB4RCF4L8EP,stopper_3_a,stopper_3,stopper,a,3,True,Fwd,True,0.442,10,False
A1KEA2Z47S3UPI:3DIP6YHAPDCB3QOVDA3DB4RCF4L8EP,porous_2_a,porous_2,porous,a,2,False,None,False,0.284,11,False
A1KEA2Z47S3UPI:3DIP6YHAPDCB3QOVDA3DB4RCF4L8EP,complex_6_b,complex_6,complex,b,6,False,Fwd,True,0.656,12,False
A1KEA2Z47S3UPI:3DIP6YHAPDCB3QOVDA3DB4RCF4L8EP,size_2_c,size_2,size,c,2,True,Rev,True,0.677,13,False
A1KEA2Z47S3UPI:3DIP6YHAPDCB3QOVDA3DB4RCF4L8EP,size_3_c,size_3,size,c,3,False,Rev,False,0.447,14,False
A1KEA2Z47S3UPI:3DIP6YHAPDCB3QOVDA3DB4RCF4L8EP,porous_4_a,porous_4,porous,a,4,True,Rev,True,0.549,15,False
A1KEA2Z47S3UPI:3DIP6YHAPDCB3QOVDA3DB4RCF4L8EP,porous_1_a,porous_1,porous,a,1,False,None,False,0.321,16,False
A1KEA2Z47S3UPI:3DIP6YHAPDCB3QOVDA3DB4RCF4L8EP,stopper_6_a,stopper_6,stopper,a,6,True,None,True,0.434,17,False
A1KEA2Z47S3UPI:3DIP6YHAPDCB3QOVDA3DB4RCF4L8EP,complex_5_b,complex_5,complex,b,5,False,Fwd,False,0.973,18,False
A1KEA2Z47S3UPI:3DIP6YHAPDCB3QOVDA3DB4RCF4L8EP,stopper_5_a,stopper_5,stopper,a,5,False,Rev,False,0.456,19,False
A1KEA2Z47S3UPI:3DIP6YHAPDCB3QOVDA3DB4RCF4L8EP,stopper_2_a,stopper_2,stopper,a,2,True,None,True,0.324,20,False
A1KEA2Z47S3UPI:3DIP6YHAPDCB3QOVDA3DB4RCF4L8EP,complex_3_b,complex_3,complex,b,3,False,Rev,False,0.343,21,False
A1KEA2Z47S3UPI:3DIP6YHAPDCB3QOVDA3DB4RCF4L8EP,size_6_c,size_6,size,c,6,True,Fwd,True,0.294,22,False
A1KEA2Z47S3UPI:3DIP6YHAPDCB3QOVDA3DB4RCF4L8EP,complex_4_b,complex_4,complex,b,4,False,None,False,0.273,23,False
A1KNXUNWWOK553:3OUYGIZWR8IXIS8IRK69C1KYADB0PF,stopper_1_a,stopper_1,stopper,a,1,False,Fwd,False,0.705,0,False
A1KNXUNWWOK553:3OUYGIZWR8IXIS8IRK69C1KYADB0PF,stopper_3_a,stopper_3,stopper,a,3,False,Rev,False,0.432,1,False
A1KNXUNWWOK553:3OUYGIZWR8IXIS8IRK69C1KYADB0PF,porous_6_a,porous_6,porous,a,6,False,None,False,0.656,2,False
A1KNXUNWWOK553:3OUYGIZWR8IXIS8IRK69C1KYADB0PF,porous_4_a,porous_4,porous,a,4,False,None,False,0.694,3,False
A1KNXUNWWOK553:3OUYGIZWR8IXIS8IRK69C1KYADB0PF,stopper_2_a,stopper_2,stopper,a,2,False,Fwd,False,0.073,4,False
A1KNXUNWWOK553:3OUYGIZWR8IXIS8IRK69C1KYADB0PF,complex_2_b,complex_2,complex,b,2,False,Fwd,False,0.952,5,False
A1KNXUNWWOK553:3OUYGIZWR8IXIS8IRK69C1KYADB0PF,size_1_c,size_1,size,c,1,True,Fwd,False,0.131,6,False
A1KNXUNWWOK553:3OUYGIZWR8IXIS8IRK69C1KYADB0PF,stopper_5_a,stopper_5,stopper,a,5,True,Fwd,True,0.359,7,False
A1KNXUNWWOK553:3OUYGIZWR8IXIS8IRK69C1KYADB0PF,stopper_4_a,stopper_4,stopper,a,4,True,None,True,0.767,8,False
A1KNXUNWWOK553:3OUYGIZWR8IXIS8IRK69C1KYADB0PF,porous_3_a,porous_3,porous,a,3,False,Rev,False,0.239,9,False
A1KNXUNWWOK553:3OUYGIZWR8IXIS8IRK69C1KYADB0PF,size_6_c,size_6,size,c,6,False,Rev,False,0.264,10,False
A1KNXUNWWOK553:3OUYGIZWR8IXIS8IRK69C1KYADB0PF,size_2_c,size_2,size,c,2,False,None,False,1.034,11,False
A1KNXUNWWOK553:3OUYGIZWR8IXIS8IRK69C1KYADB0PF,complex_4_b,complex_4,complex,b,4,True,Rev,True,0.426,12,False
A1KNXUNWWOK553:3OUYGIZWR8IXIS8IRK69C1KYADB0PF,porous_1_a,porous_1,porous,a,1,True,Rev,True,0.088,13,False
A1KNXUNWWOK553:3OUYGIZWR8IXIS8IRK69C1KYADB0PF,size_5_c,size_5,size,c,5,True,Rev,False,0.414,14,False
A1KNXUNWWOK553:3OUYGIZWR8IXIS8IRK69C1KYADB0PF,porous_5_a,porous_5,porous,a,5,True,None,True,0.451,15,False
A1KNXUNWWOK553:3OUYGIZWR8IXIS8IRK69C1KYADB0PF,complex_5_b,complex_5,complex,b,5,True,None,False,1.467,16,False
A1KNXUNWWOK553:3OUYGIZWR8IXIS8IRK69C1KYADB0PF,complex_1_b,complex_1,complex,b,1,False,Rev,False,0.543,17,False
A1KNXUNWWOK553:3OUYGIZWR8IXIS8IRK69C1KYADB0PF,porous_2_a,porous_2,porous,a,2,True,Rev,True,0.122,18,False
A1KNXUNWWOK553:3OUYGIZWR8IXIS8IRK69C1KYADB0PF,size_3_c,size_3,size,c,3,True,Fwd,True,0.438,19,False
A1KNXUNWWOK553:3OUYGIZWR8IXIS8IRK69C1KYADB0PF,stopper_6_a,stopper_6,stopper,a,6,False,Fwd,False,0.592,20,False
A1KNXUNWWOK553:3OUYGIZWR8IXIS8IRK69C1KYADB0PF,complex_3_b,complex_3,complex,b,3,True,Fwd,True,0.377,21,False
A1KNXUNWWOK553:3OUYGIZWR8IXIS8IRK69C1KYADB0PF,complex_6_b,complex_6,complex,b,6,True,None,False,1.152,22,False
A1KNXUNWWOK553:3OUYGIZWR8IXIS8IRK69C1KYADB0PF,size_4_c,size_4,size,c,4,False,None,False,0.469,23,False
A1ME089VLGOBBI:3QY5DC2MXS4171V4BOOOPEU1OX2UFL,complex_3_b,complex_3,complex,b,3,False,Fwd,False,1.228,0,False
A1ME089VLGOBBI:3QY5DC2MXS4171V4BOOOPEU1OX2UFL,porous_5_a,porous_5,porous,a,5,False,None,False,0.459,1,False
A1ME089VLGOBBI:3QY5DC2MXS4171V4BOOOPEU1OX2UFL,stopper_4_a,stopper_4,stopper,a,4,False,None,False,0.059,2,False
A1ME089VLGOBBI:3QY5DC2MXS4171V4BOOOPEU1OX2UFL,stopper_3_a,stopper_3,stopper,a,3,True,None,True,0.459,3,False
A1ME089VLGOBBI:3QY5DC2MXS4171V4BOOOPEU1OX2UFL,porous_4_a,porous_4,porous,a,4,True,Fwd,True,0.116,4,False
A1ME089VLGOBBI:3QY5DC2MXS4171V4BOOOPEU1OX2UFL,size_2_c,size_2,size,c,2,True,Fwd,True,0.119,5,False
A1ME089VLGOBBI:3QY5DC2MXS4171V4BOOOPEU1OX2UFL,porous_2_a,porous_2,porous,a,2,False,Rev,False,0.128,6,False
A1ME089VLGOBBI:3QY5DC2MXS4171V4BOOOPEU1OX2UFL,complex_2_b,complex_2,complex,b,2,True,Rev,False,0.473,7,False
A1ME089VLGOBBI:3QY5DC2MXS4171V4BOOOPEU1OX2UFL,size_3_c,size_3,size,c,3,False,Fwd,False,0.147,8,False
A1ME089VLGOBBI:3QY5DC2MXS4171V4BOOOPEU1OX2UFL,complex_4_b,complex_4,complex,b,4,False,Rev,False,0.108,9,False
A1ME089VLGOBBI:3QY5DC2MXS4171V4BOOOPEU1OX2UFL,stopper_1_a,stopper_1,stopper,a,1,True,Rev,True,0.387,10,False
A1ME089VLGOBBI:3QY5DC2MXS4171V4BOOOPEU1OX2UFL,size_1_c,size_1,size,c,1,False,Fwd,False,0.138,11,False
A1ME089VLGOBBI:3QY5DC2MXS4171V4BOOOPEU1OX2UFL,stopper_6_a,stopper_6,stopper,a,6,True,Rev,True,0.384,12,False
A1ME089VLGOBBI:3QY5DC2MXS4171V4BOOOPEU1OX2UFL,porous_3_a,porous_3,porous,a,3,True,None,True,0.258,13,False
A1ME089VLGOBBI:3QY5DC2MXS4171V4BOOOPEU1OX2UFL,porous_1_a,porous_1,porous,a,1,False,Rev,False,0.11,14,False
A1ME089VLGOBBI:3QY5DC2MXS4171V4BOOOPEU1OX2UFL,size_6_c,size_6,size,c,6,True,None,True,0.209,15,False
A1ME089VLGOBBI:3QY5DC2MXS4171V4BOOOPEU1OX2UFL,stopper_2_a,stopper_2,stopper,a,2,True,Rev,True,0.058,16,False
A1ME089VLGOBBI:3QY5DC2MXS4171V4BOOOPEU1OX2UFL,size_4_c,size_4,size,c,4,True,Fwd,True,0.034,17,False
A1ME089VLGOBBI:3QY5DC2MXS4171V4BOOOPEU1OX2UFL,complex_5_b,complex_5,complex,b,5,False,None,False,0.618,18,False
A1ME089VLGOBBI:3QY5DC2MXS4171V4BOOOPEU1OX2UFL,porous_6_a,porous_6,porous,a,6,True,Fwd,True,0.107,19,False
A1ME089VLGOBBI:3QY5DC2MXS4171V4BOOOPEU1OX2UFL,size_5_c,size_5,size,c,5,False,Rev,False,0.076,20,False
A1ME089VLGOBBI:3QY5DC2MXS4171V4BOOOPEU1OX2UFL,complex_1_b,complex_1,complex,b,1,True,None,True,0.585,21,False
A1ME089VLGOBBI:3QY5DC2MXS4171V4BOOOPEU1OX2UFL,stopper_5_a,stopper_5,stopper,a,5,False,Fwd,False,0.14,22,False
A1ME089VLGOBBI:3QY5DC2MXS4171V4BOOOPEU1OX2UFL,complex_6_b,complex_6,complex,b,6,False,None,False,0.557,23,False
A1NVJB5O4H7ZCJ:3S0TNUHWKU26BKAVHFST5M9RFSK8DW,stopper_4_a,stopper_4,stopper,a,4,False,Fwd,False,0.558,0,False
A1NVJB5O4H7ZCJ:3S0TNUHWKU26BKAVHFST5M9RFSK8DW,size_1_c,size_1,size,c,1,False,Rev,False,0.381,1,False
A1NVJB5O4H7ZCJ:3S0TNUHWKU26BKAVHFST5M9RFSK8DW,complex_2_b,complex_2,complex,b,2,True,None,False,0.482,2,False
A1NVJB5O4H7ZCJ:3S0TNUHWKU26BKAVHFST5M9RFSK8DW,complex_6_b,complex_6,complex,b,6,False,Fwd,False,0.749,3,False
A1NVJB5O4H7ZCJ:3S0TNUHWKU26BKAVHFST5M9RFSK8DW,stopper_6_a,stopper_6,stopper,a,6,True,None,True,0.594,4,False
A1NVJB5O4H7ZCJ:3S0TNUHWKU26BKAVHFST5M9RFSK8DW,complex_5_b,complex_5,complex,b,5,False,Fwd,True,0.716,5,False
A1NVJB5O4H7ZCJ:3S0TNUHWKU26BKAVHFST5M9RFSK8DW,porous_3_a,porous_3,porous,a,3,True,Fwd,False,0.356,6,False
A1NVJB5O4H7ZCJ:3S0TNUHWKU26BKAVHFST5M9RFSK8DW,complex_1_b,complex_1,complex,b,1,True,Fwd,True,0.769,7,False
A1NVJB5O4H7ZCJ:3S0TNUHWKU26BKAVHFST5M9RFSK8DW,size_3_c,size_3,size,c,3,False,Rev,False,0.154,8,False
A1NVJB5O4H7ZCJ:3S0TNUHWKU26BKAVHFST5M9RFSK8DW,stopper_2_a,stopper_2,stopper,a,2,True,None,True,0.295,9,False
A1NVJB5O4H7ZCJ:3S0TNUHWKU26BKAVHFST5M9RFSK8DW,complex_4_b,complex_4,complex,b,4,False,None,False,0.483,10,False
A1NVJB5O4H7ZCJ:3S0TNUHWKU26BKAVHFST5M9RFSK8DW,porous_1_a,porous_1,porous,a,1,False,None,False,0.229,11,True
A1NVJB5O4H7ZCJ:3S0TNUHWKU26BKAVHFST5M9RFSK8DW,complex_3_b,complex_3,complex,b,3,False,Rev,False,0.429,12,False
A1NVJB5O4H7ZCJ:3S0TNUHWKU26BKAVHFST5M9RFSK8DW,porous_5_a,porous_5,porous,a,5,False,Fwd,False,0.07,13,False
A1NVJB5O4H7ZCJ:3S0TNUHWKU26BKAVHFST5M9RFSK8DW,porous_4_a,porous_4,porous,a,4,True,Rev,False,0.061,14,False
A1NVJB5O4H7ZCJ:3S0TNUHWKU26BKAVHFST5M9RFSK8DW,size_5_c,size_5,size,c,5,False,None,False,0.297,15,False
A1NVJB5O4H7ZCJ:3S0TNUHWKU26BKAVHFST5M9RFSK8DW,stopper_3_a,stopper_3,stopper,a,3,True,Fwd,False,0.069,16,False
A1NVJB5O4H7ZCJ:3S0TNUHWKU26BKAVHFST5M9RFSK8DW,size_6_c,size_6,size,c,6,True,Fwd,False,0.24,17,False
A1NVJB5O4H7ZCJ:3S0TNUHWKU26BKAVHFST5M9RFSK8DW,porous_6_a,porous_6,porous,a,6,True,Rev,False,0.237,18,False
A1NVJB5O4H7ZCJ:3S0TNUHWKU26BKAVHFST5M9RFSK8DW,porous_2_a,porous_2,porous,a,2,False,None,False,0.532,19,False
A1NVJB5O4H7ZCJ:3S0TNUHWKU26BKAVHFST5M9RFSK8DW,size_2_c,size_2,size,c,2,True,Rev,True,0.204,20,False
A1NVJB5O4H7ZCJ:3S0TNUHWKU26BKAVHFST5M9RFSK8DW,size_4_c,size_4,size,c,4,True,Rev,True,0.146,21,False
A1NVJB5O4H7ZCJ:3S0TNUHWKU26BKAVHFST5M9RFSK8DW,stopper_1_a,stopper_1,stopper,a,1,True,None,True,0.148,22,False
A1NVJB5O4H7ZCJ:3S0TNUHWKU26BKAVHFST5M9RFSK8DW,stopper_5_a,stopper_5,stopper,a,5,False,Rev,False,0.207,23,False
A1OBWGLS5LRLT3:3EKVH9QMEZOVP5861YJSVVWOTSU2DP,complex_3_b,complex_3,complex,b,3,False,Rev,False,0.884,0,False
A1OBWGLS5LRLT3:3EKVH9QMEZOVP5861YJSVVWOTSU2DP,stopper_6_a,stopper_6,stopper,a,6,True,None,True,1.06,1,False
A1OBWGLS5LRLT3:3EKVH9QMEZOVP5861YJSVVWOTSU2DP,size_4_c,size_4,size,c,4,True,Rev,True,1.242,2,False
A1OBWGLS5LRLT3:3EKVH9QMEZOVP5861YJSVVWOTSU2DP,size_5_c,size_5,size,c,5,False,None,False,1.199,3,False
A1OBWGLS5LRLT3:3EKVH9QMEZOVP5861YJSVVWOTSU2DP,porous_5_a,porous_5,porous,a,5,False,Fwd,False,0.708,4,False
A1OBWGLS5LRLT3:3EKVH9QMEZOVP5861YJSVVWOTSU2DP,size_2_c,size_2,size,c,2,True,Rev,True,0.502,5,False
A1OBWGLS5LRLT3:3EKVH9QMEZOVP5861YJSVVWOTSU2DP,complex_1_b,complex_1,complex,b,1,True,Fwd,True,1.209,6,False
A1OBWGLS5LRLT3:3EKVH9QMEZOVP5861YJSVVWOTSU2DP,stopper_2_a,stopper_2,stopper,a,2,True,None,True,0.697,7,False
A1OBWGLS5LRLT3:3EKVH9QMEZOVP5861YJSVVWOTSU2DP,porous_6_a,porous_6,porous,a,6,True,Rev,True,0.343,8,False
A1OBWGLS5LRLT3:3EKVH9QMEZOVP5861YJSVVWOTSU2DP,complex_6_b,complex_6,complex,b,6,False,Fwd,False,0.733,9,False
A1OBWGLS5LRLT3:3EKVH9QMEZOVP5861YJSVVWOTSU2DP,stopper_5_a,stopper_5,stopper,a,5,False,Rev,False,0.384,10,False
A1OBWGLS5LRLT3:3EKVH9QMEZOVP5861YJSVVWOTSU2DP,stopper_3_a,stopper_3,stopper,a,3,True,Fwd,True,0.432,11,False
A1OBWGLS5LRLT3:3EKVH9QMEZOVP5861YJSVVWOTSU2DP,complex_2_b,complex_2,complex,b,2,True,None,False,0.561,12,False
A1OBWGLS5LRLT3:3EKVH9QMEZOVP5861YJSVVWOTSU2DP,complex_5_b,complex_5,complex,b,5,False,Fwd,True,0.905,13,False
A1OBWGLS5LRLT3:3EKVH9QMEZOVP5861YJSVVWOTSU2DP,complex_4_b,complex_4,complex,b,4,False,None,False,0.818,14,False
A1OBWGLS5LRLT3:3EKVH9QMEZOVP5861YJSVVWOTSU2DP,size_6_c,size_6,size,c,6,True,Fwd,True,0.463,15,False
A1OBWGLS5LRLT3:3EKVH9QMEZOVP5861YJSVVWOTSU2DP,porous_1_a,porous_1,porous,a,1,False,None,False,0.243,16,False
A1OBWGLS5LRLT3:3EKVH9QMEZOVP5861YJSVVWOTSU2DP,stopper_4_a,stopper_4,stopper,a,4,False,Fwd,False,0.442,17,False
A1OBWGLS5LRLT3:3EKVH9QMEZOVP5861YJSVVWOTSU2DP,porous_2_a,porous_2,porous,a,2,False,None,False,0.209,18,False
A1OBWGLS5LRLT3:3EKVH9QMEZOVP5861YJSVVWOTSU2DP,stopper_1_a,stopper_1,stopper,a,1,True,None,True,0.241,19,False
A1OBWGLS5LRLT3:3EKVH9QMEZOVP5861YJSVVWOTSU2DP,porous_3_a,porous_3,porous,a,3,True,Fwd,True,0.074,20,False
A1OBWGLS5LRLT3:3EKVH9QMEZOVP5861YJSVVWOTSU2DP,porous_4_a,porous_4,porous,a,4,True,Rev,True,0.743,21,False
A1OBWGLS5LRLT3:3EKVH9QMEZOVP5861YJSVVWOTSU2DP,size_3_c,size_3,size,c,3,False,Rev,False,0.322,22,False
A1OBWGLS5LRLT3:3EKVH9QMEZOVP5861YJSVVWOTSU2DP,size_1_c,size_1,size,c,1,False,Rev,False,0.22,23,False
A1RTLF0OVZI4QT:3WQQ9FUS6BEDWNCB3J1NAWLRC788BP,stopper_6_a,stopper_6,stopper,a,6,True,Fwd,True,0.062,0,False
A1RTLF0OVZI4QT:3WQQ9FUS6BEDWNCB3J1NAWLRC788BP,porous_4_a,porous_4,porous,a,4,True,None,True,0.999,1,False
A1RTLF0OVZI4QT:3WQQ9FUS6BEDWNCB3J1NAWLRC788BP,porous_5_a,porous_5,porous,a,5,False,Rev,False,0.269,2,False
A1RTLF0OVZI4QT:3WQQ9FUS6BEDWNCB3J1NAWLRC788BP,stopper_3_a,stopper_3,stopper,a,3,True,Rev,True,0.071,3,False
A1RTLF0OVZI4QT:3WQQ9FUS6BEDWNCB3J1NAWLRC788BP,porous_6_a,porous_6,porous,a,6,True,None,False,0.15,4,False
A1RTLF0OVZI4QT:3WQQ9FUS6BEDWNCB3J1NAWLRC788BP,porous_3_a,porous_3,porous,a,3,True,Rev,True,0.055,5,False
A1RTLF0OVZI4QT:3WQQ9FUS6BEDWNCB3J1NAWLRC788BP,size_4_c,size_4,size,c,4,True,None,True,0.383,6,False
A1RTLF0OVZI4QT:3WQQ9FUS6BEDWNCB3J1NAWLRC788BP,stopper_4_a,stopper_4,stopper,a,4,False,Rev,False,0.086,7,False
A1RTLF0OVZI4QT:3WQQ9FUS6BEDWNCB3J1NAWLRC788BP,complex_4_b,complex_4,complex,b,4,False,Fwd,False,0.119,8,False
A1RTLF0OVZI4QT:3WQQ9FUS6BEDWNCB3J1NAWLRC788BP,stopper_1_a,stopper_1,stopper,a,1,True,Fwd,True,0.71,9,False
A1RTLF0OVZI4QT:3WQQ9FUS6BEDWNCB3J1NAWLRC788BP,porous_2_a,porous_2,porous,a,2,False,Fwd,False,0.095,10,False
A1RTLF0OVZI4QT:3WQQ9FUS6BEDWNCB3J1NAWLRC788BP,size_1_c,size_1,size,c,1,False,None,False,0.102,11,False
A1RTLF0OVZI4QT:3WQQ9FUS6BEDWNCB3J1NAWLRC788BP,size_5_c,size_5,size,c,5,False,Fwd,False,0.615,12,False
A1RTLF0OVZI4QT:3WQQ9FUS6BEDWNCB3J1NAWLRC788BP,stopper_2_a,stopper_2,stopper,a,2,True,Fwd,True,0.527,13,False
A1RTLF0OVZI4QT:3WQQ9FUS6BEDWNCB3J1NAWLRC788BP,size_2_c,size_2,size,c,2,True,None,True,0.406,14,False
A1RTLF0OVZI4QT:3WQQ9FUS6BEDWNCB3J1NAWLRC788BP,size_3_c,size_3,size,c,3,False,None,False,0.184,15,False
A1RTLF0OVZI4QT:3WQQ9FUS6BEDWNCB3J1NAWLRC788BP,complex_3_b,complex_3,complex,b,3,False,None,False,0.495,16,False
A1RTLF0OVZI4QT:3WQQ9FUS6BEDWNCB3J1NAWLRC788BP,porous_1_a,porous_1,porous,a,1,False,Fwd,False,0.495,17,False
A1RTLF0OVZI4QT:3WQQ9FUS6BEDWNCB3J1NAWLRC788BP,stopper_5_a,stopper_5,stopper,a,5,False,None,False,0.039,18,False
A1RTLF0OVZI4QT:3WQQ9FUS6BEDWNCB3J1NAWLRC788BP,size_6_c,size_6,size,c,6,True,Rev,True,0.238,19,False
A1RTLF0OVZI4QT:3WQQ9FUS6BEDWNCB3J1NAWLRC788BP,complex_1_b,complex_1,complex,b,1,True,Rev,True,0.639,20,False
A1RTLF0OVZI4QT:3WQQ9FUS6BEDWNCB3J1NAWLRC788BP,complex_5_b,complex_5,complex,b,5,False,Rev,False,0.159,21,False
A1RTLF0OVZI4QT:3WQQ9FUS6BEDWNCB3J1NAWLRC788BP,complex_2_b,complex_2,complex,b,2,True,Fwd,True,0.151,22,False
A1RTLF0OVZI4QT:3WQQ9FUS6BEDWNCB3J1NAWLRC788BP,complex_6_b,complex_6,complex,b,6,False,Rev,False,0.007,23,False
A1TSVP4XC9NTR4:3A0EX8ZRN98SBT3TGNZH999T5NLYB5,size_3_c,size_3,size,c,3,True,Rev,False,0.116,0,False
A1TSVP4XC9NTR4:3A0EX8ZRN98SBT3TGNZH999T5NLYB5,stopper_3_a,stopper_3,stopper,a,3,False,None,False,1.24,1,False
A1TSVP4XC9NTR4:3A0EX8ZRN98SBT3TGNZH999T5NLYB5,size_6_c,size_6,size,c,6,False,None,False,0.483,2,False
A1TSVP4XC9NTR4:3A0EX8ZRN98SBT3TGNZH999T5NLYB5,porous_3_a,porous_3,porous,a,3,False,None,False,0.134,3,False
A1TSVP4XC9NTR4:3A0EX8ZRN98SBT3TGNZH999T5NLYB5,complex_6_b,complex_6,complex,b,6,True,Fwd,,-1.0,4,False
A1TSVP4XC9NTR4:3A0EX8ZRN98SBT3TGNZH999T5NLYB5,size_1_c,size_1,size,c,1,True,Rev,True,0.173,5,False
A1TSVP4XC9NTR4:3A0EX8ZRN98SBT3TGNZH999T5NLYB5,porous_5_a,porous_5,porous,a,5,True,Fwd,True,0.757,6,False
A1TSVP4XC9NTR4:3A0EX8ZRN98SBT3TGNZH999T5NLYB5,porous_2_a,porous_2,porous,a,2,True,None,True,0.198,7,False
A1TSVP4XC9NTR4:3A0EX8ZRN98SBT3TGNZH999T5NLYB5,stopper_2_a,stopper_2,stopper,a,2,False,Rev,False,0.347,8,False
A1TSVP4XC9NTR4:3A0EX8ZRN98SBT3TGNZH999T5NLYB5,size_4_c,size_4,size,c,4,False,Fwd,False,0.196,9,False
A1TSVP4XC9NTR4:3A0EX8ZRN98SBT3TGNZH999T5NLYB5,porous_6_a,porous_6,porous,a,6,False,Fwd,,-1.0,10,False
A1TSVP4XC9NTR4:3A0EX8ZRN98SBT3TGNZH999T5NLYB5,stopper_5_a,stopper_5,stopper,a,5,True,Rev,True,0.291,11,False
A1TSVP4XC9NTR4:3A0EX8ZRN98SBT3TGNZH999T5NLYB5,size_5_c,size_5,size,c,5,True,None,True,0.273,12,False
A1TSVP4XC9NTR4:3A0EX8ZRN98SBT3TGNZH999T5NLYB5,size_2_c,size_2,size,c,2,False,Fwd,False,0.271,13,False
A1TSVP4XC9NTR4:3A0EX8ZRN98SBT3TGNZH999T5NLYB5,complex_2_b,complex_2,complex,b,2,False,Rev,False,0.537,14,False
A1TSVP4XC9NTR4:3A0EX8ZRN98SBT3TGNZH999T5NLYB5,complex_3_b,complex_3,complex,b,3,True,Rev,False,0.276,15,False
A1TSVP4XC9NTR4:3A0EX8ZRN98SBT3TGNZH999T5NLYB5,stopper_1_a,stopper_1,stopper,a,1,False,Rev,False,0.584,16,False
A1TSVP4XC9NTR4:3A0EX8ZRN98SBT3TGNZH999T5NLYB5,complex_5_b,complex_5,complex,b,5,True,Fwd,False,0.979,17,False
A1TSVP4XC9NTR4:3A0EX8ZRN98SBT3TGNZH999T5NLYB5,complex_4_b,complex_4,complex,b,4,True,None,True,0.827,18,False
A1TSVP4XC9NTR4:3A0EX8ZRN98SBT3TGNZH999T5NLYB5,stopper_6_a,stopper_6,stopper,a,6,False,Rev,False,0.194,19,False
A1TSVP4XC9NTR4:3A0EX8ZRN98SBT3TGNZH999T5NLYB5,porous_1_a,porous_1,porous,a,1,True,None,True,0.395,20,False
A1TSVP4XC9NTR4:3A0EX8ZRN98SBT3TGNZH999T5NLYB5,stopper_4_a,stopper_4,stopper,a,4,True,Fwd,True,0.248,21,False
A1TSVP4XC9NTR4:3A0EX8ZRN98SBT3TGNZH999T5NLYB5,porous_4_a,porous_4,porous,a,4,False,Fwd,False,0.164,22,False
A1TSVP4XC9NTR4:3A0EX8ZRN98SBT3TGNZH999T5NLYB5,complex_1_b,complex_1,complex,b,1,False,None,True,0.239,23,False
A1VNYP58BTF4HX:3JBT3HLQF9MUKDE8VEJ1I0NKSKVPZX,complex_6_b,complex_6,complex,b,6,False,None,False,0.14,0,False
A1VNYP58BTF4HX:3JBT3HLQF9MUKDE8VEJ1I0NKSKVPZX,size_6_c,size_6,size,c,6,True,None,False,0.177,1,False
A1VNYP58BTF4HX:3JBT3HLQF9MUKDE8VEJ1I0NKSKVPZX,complex_4_b,complex_4,complex,b,4,False,Rev,False,0.142,2,False
A1VNYP58BTF4HX:3JBT3HLQF9MUKDE8VEJ1I0NKSKVPZX,porous_1_a,porous_1,porous,a,1,False,Rev,False,0.004,3,False
A1VNYP58BTF4HX:3JBT3HLQF9MUKDE8VEJ1I0NKSKVPZX,stopper_6_a,stopper_6,stopper,a,6,True,Rev,False,0.192,4,False
A1VNYP58BTF4HX:3JBT3HLQF9MUKDE8VEJ1I0NKSKVPZX,stopper_5_a,stopper_5,stopper,a,5,False,Fwd,False,0.094,5,False
A1VNYP58BTF4HX:3JBT3HLQF9MUKDE8VEJ1I0NKSKVPZX,size_4_c,size_4,size,c,4,True,Fwd,False,0.072,6,False
A1VNYP58BTF4HX:3JBT3HLQF9MUKDE8VEJ1I0NKSKVPZX,stopper_3_a,stopper_3,stopper,a,3,True,None,False,0.195,7,False
A1VNYP58BTF4HX:3JBT3HLQF9MUKDE8VEJ1I0NKSKVPZX,porous_6_a,porous_6,porous,a,6,True,Fwd,False,0.224,8,False
A1VNYP58BTF4HX:3JBT3HLQF9MUKDE8VEJ1I0NKSKVPZX,size_2_c,size_2,size,c,2,True,Fwd,False,0.169,9,False
A1VNYP58BTF4HX:3JBT3HLQF9MUKDE8VEJ1I0NKSKVPZX,complex_1_b,complex_1,complex,b,1,True,None,False,0.172,10,False
A1VNYP58BTF4HX:3JBT3HLQF9MUKDE8VEJ1I0NKSKVPZX,size_5_c,size_5,size,c,5,False,Rev,False,0.189,11,False
A1VNYP58BTF4HX:3JBT3HLQF9MUKDE8VEJ1I0NKSKVPZX,size_3_c,size_3,size,c,3,False,Fwd,False,0.0,12,False
A1VNYP58BTF4HX:3JBT3HLQF9MUKDE8VEJ1I0NKSKVPZX,porous_2_a,porous_2,porous,a,2,False,Rev,False,0.028,13,False
A1VNYP58BTF4HX:3JBT3HLQF9MUKDE8VEJ1I0NKSKVPZX,stopper_2_a,stopper_2,stopper,a,2,True,Rev,False,0.077,14,False
A1VNYP58BTF4HX:3JBT3HLQF9MUKDE8VEJ1I0NKSKVPZX,stopper_1_a,stopper_1,stopper,a,1,True,Rev,True,0.017,15,False
A1VNYP58BTF4HX:3JBT3HLQF9MUKDE8VEJ1I0NKSKVPZX,porous_5_a,porous_5,porous,a,5,False,None,False,0.008,16,False
A1VNYP58BTF4HX:3JBT3HLQF9MUKDE8VEJ1I0NKSKVPZX,stopper_4_a,stopper_4,stopper,a,4,False,None,False,0.172,17,False
A1VNYP58BTF4HX:3JBT3HLQF9MUKDE8VEJ1I0NKSKVPZX,complex_3_b,complex_3,complex,b,3,False,Fwd,True,0.006,18,False
A1VNYP58BTF4HX:3JBT3HLQF9MUKDE8VEJ1I0NKSKVPZX,complex_2_b,complex_2,complex,b,2,True,Rev,False,0.13,19,False
A1VNYP58BTF4HX:3JBT3HLQF9MUKDE8VEJ1I0NKSKVPZX,porous_4_a,porous_4,porous,a,4,True,Fwd,False,0.151,20,False
A1VNYP58BTF4HX:3JBT3HLQF9MUKDE8VEJ1I0NKSKVPZX,porous_3_a,porous_3,porous,a,3,True,None,False,0.048,21,False
A1VNYP58BTF4HX:3JBT3HLQF9MUKDE8VEJ1I0NKSKVPZX,size_1_c,size_1,size,c,1,False,Fwd,False,0.033,22,False
A1VNYP58BTF4HX:3JBT3HLQF9MUKDE8VEJ1I0NKSKVPZX,complex_5_b,complex_5,complex,b,5,False,None,False,0.028,23,False
A203C9REA20IT3:33NF62TLXKM397CO00B7YPDVFCCKJ6,size_1_c,size_1,size,c,1,False,Rev,False,0.244,0,False
A203C9REA20IT3:33NF62TLXKM397CO00B7YPDVFCCKJ6,complex_2_b,complex_2,complex,b,2,True,None,True,0.388,1,False
A203C9REA20IT3:33NF62TLXKM397CO00B7YPDVFCCKJ6,stopper_6_a,stopper_6,stopper,a,6,True,None,True,0.415,2,False
A203C9REA20IT3:33NF62TLXKM397CO00B7YPDVFCCKJ6,stopper_4_a,stopper_4,stopper,a,4,False,Fwd,False,0.052,3,False
A203C9REA20IT3:33NF62TLXKM397CO00B7YPDVFCCKJ6,size_2_c,size_2,size,c,2,True,Rev,True,0.235,4,False
A203C9REA20IT3:33NF62TLXKM397CO00B7YPDVFCCKJ6,complex_5_b,complex_5,complex,b,5,False,Fwd,False,0.271,5,False
A203C9REA20IT3:33NF62TLXKM397CO00B7YPDVFCCKJ6,porous_5_a,porous_5,porous,a,5,False,Fwd,False,0.175,6,False
A203C9REA20IT3:33NF62TLXKM397CO00B7YPDVFCCKJ6,stopper_1_a,stopper_1,stopper,a,1,True,None,True,0.372,7,False
A203C9REA20IT3:33NF62TLXKM397CO00B7YPDVFCCKJ6,size_5_c,size_5,size,c,5,False,None,False,0.163,8,False
A203C9REA20IT3:33NF62TLXKM397CO00B7YPDVFCCKJ6,porous_3_a,porous_3,porous,a,3,True,Fwd,True,0.019,9,False
A203C9REA20IT3:33NF62TLXKM397CO00B7YPDVFCCKJ6,complex_6_b,complex_6,complex,b,6,False,Fwd,False,0.015,10,False
A203C9REA20IT3:33NF62TLXKM397CO00B7YPDVFCCKJ6,stopper_5_a,stopper_5,stopper,a,5,False,Rev,False,0.087,11,False
A203C9REA20IT3:33NF62TLXKM397CO00B7YPDVFCCKJ6,porous_1_a,porous_1,porous,a,1,False,None,False,0.199,12,False
A203C9REA20IT3:33NF62TLXKM397CO00B7YPDVFCCKJ6,stopper_2_a,stopper_2,stopper,a,2,True,None,False,0.075,13,False
A203C9REA20IT3:33NF62TLXKM397CO00B7YPDVFCCKJ6,porous_6_a,porous_6,porous,a,6,True,Rev,True,0.371,14,False
A203C9REA20IT3:33NF62TLXKM397CO00B7YPDVFCCKJ6,complex_3_b,complex_3,complex,b,3,False,Rev,False,0.159,15,False
A203C9REA20IT3:33NF62TLXKM397CO00B7YPDVFCCKJ6,stopper_3_a,stopper_3,stopper,a,3,True,Fwd,True,0.095,16,False
A203C9REA20IT3:33NF62TLXKM397CO00B7YPDVFCCKJ6,complex_1_b,complex_1,complex,b,1,True,Fwd,True,0.283,17,False
A203C9REA20IT3:33NF62TLXKM397CO00B7YPDVFCCKJ6,size_4_c,size_4,size,c,4,True,Rev,True,0.295,18,False
A203C9REA20IT3:33NF62TLXKM397CO00B7YPDVFCCKJ6,size_6_c,size_6,size,c,6,True,Fwd,True,0.075,19,False
A203C9REA20IT3:33NF62TLXKM397CO00B7YPDVFCCKJ6,complex_4_b,complex_4,complex,b,4,False,None,False,0.156,20,False
A203C9REA20IT3:33NF62TLXKM397CO00B7YPDVFCCKJ6,size_3_c,size_3,size,c,3,False,Rev,False,0.134,21,False
A203C9REA20IT3:33NF62TLXKM397CO00B7YPDVFCCKJ6,porous_4_a,porous_4,porous,a,4,True,Rev,True,0.011,22,False
A203C9REA20IT3:33NF62TLXKM397CO00B7YPDVFCCKJ6,porous_2_a,porous_2,porous,a,2,False,None,False,0.168,23,False
A21S7MA9DCW95E:3R2UR8A0IB0NUI2SFWI1WF2JAGAOXT,complex_1_b,complex_1,complex,b,1,True,None,False,1.468,0,False
A21S7MA9DCW95E:3R2UR8A0IB0NUI2SFWI1WF2JAGAOXT,size_2_c,size_2,size,c,2,True,Fwd,True,0.389,1,False
A21S7MA9DCW95E:3R2UR8A0IB0NUI2SFWI1WF2JAGAOXT,complex_4_b,complex_4,complex,b,4,False,Rev,False,0.246,2,False
A21S7MA9DCW95E:3R2UR8A0IB0NUI2SFWI1WF2JAGAOXT,stopper_3_a,stopper_3,stopper,a,3,True,None,True,0.584,3,False
A21S7MA9DCW95E:3R2UR8A0IB0NUI2SFWI1WF2JAGAOXT,porous_1_a,porous_1,porous,a,1,False,Rev,False,0.192,4,False
A21S7MA9DCW95E:3R2UR8A0IB0NUI2SFWI1WF2JAGAOXT,stopper_2_a,stopper_2,stopper,a,2,True,Rev,False,0.051,5,False
A21S7MA9DCW95E:3R2UR8A0IB0NUI2SFWI1WF2JAGAOXT,porous_2_a,porous_2,porous,a,2,False,Rev,False,0.365,6,False
A21S7MA9DCW95E:3R2UR8A0IB0NUI2SFWI1WF2JAGAOXT,porous_6_a,porous_6,porous,a,6,True,Fwd,True,0.384,7,False
A21S7MA9DCW95E:3R2UR8A0IB0NUI2SFWI1WF2JAGAOXT,size_6_c,size_6,size,c,6,True,None,True,0.249,8,False
A21S7MA9DCW95E:3R2UR8A0IB0NUI2SFWI1WF2JAGAOXT,stopper_1_a,stopper_1,stopper,a,1,True,Rev,True,0.158,9,False
A21S7MA9DCW95E:3R2UR8A0IB0NUI2SFWI1WF2JAGAOXT,stopper_6_a,stopper_6,stopper,a,6,True,Rev,True,0.28,10,False
A21S7MA9DCW95E:3R2UR8A0IB0NUI2SFWI1WF2JAGAOXT,complex_6_b,complex_6,complex,b,6,False,None,False,0.41,11,False
A21S7MA9DCW95E:3R2UR8A0IB0NUI2SFWI1WF2JAGAOXT,size_4_c,size_4,size,c,4,True,Fwd,True,0.016,12,False
A21S7MA9DCW95E:3R2UR8A0IB0NUI2SFWI1WF2JAGAOXT,complex_3_b,complex_3,complex,b,3,False,Fwd,True,0.366,13,False
A21S7MA9DCW95E:3R2UR8A0IB0NUI2SFWI1WF2JAGAOXT,porous_5_a,porous_5,porous,a,5,False,None,False,0.499,14,False
A21S7MA9DCW95E:3R2UR8A0IB0NUI2SFWI1WF2JAGAOXT,size_5_c,size_5,size,c,5,False,Rev,False,0.092,15,False
A21S7MA9DCW95E:3R2UR8A0IB0NUI2SFWI1WF2JAGAOXT,stopper_5_a,stopper_5,stopper,a,5,False,Fwd,False,0.058,16,False
A21S7MA9DCW95E:3R2UR8A0IB0NUI2SFWI1WF2JAGAOXT,size_3_c,size_3,size,c,3,False,Fwd,False,0.068,17,False
A21S7MA9DCW95E:3R2UR8A0IB0NUI2SFWI1WF2JAGAOXT,size_1_c,size_1,size,c,1,False,Fwd,False,0.191,18,False
A21S7MA9DCW95E:3R2UR8A0IB0NUI2SFWI1WF2JAGAOXT,porous_4_a,porous_4,porous,a,4,True,Fwd,False,0.122,19,False
A21S7MA9DCW95E:3R2UR8A0IB0NUI2SFWI1WF2JAGAOXT,stopper_4_a,stopper_4,stopper,a,4,False,None,False,0.236,20,False
A21S7MA9DCW95E:3R2UR8A0IB0NUI2SFWI1WF2JAGAOXT,porous_3_a,porous_3,porous,a,3,True,None,True,0.044,21,False
A21S7MA9DCW95E:3R2UR8A0IB0NUI2SFWI1WF2JAGAOXT,complex_2_b,complex_2,complex,b,2,True,Rev,True,0.294,22,False
A21S7MA9DCW95E:3R2UR8A0IB0NUI2SFWI1WF2JAGAOXT,complex_5_b,complex_5,complex,b,5,False,None,False,0.357,23,False
A228YSXU6H27QT:3RYC5T2D74DLIMSHLXPOWXLLJ3CPR4,porous_1_a,porous_1,porous,a,1,False,Rev,False,0.446,0,False
A228YSXU6H27QT:3RYC5T2D74DLIMSHLXPOWXLLJ3CPR4,porous_2_a,porous_2,porous,a,2,False,Rev,False,0.808,1,False
A228YSXU6H27QT:3RYC5T2D74DLIMSHLXPOWXLLJ3CPR4,size_6_c,size_6,size,c,6,True,None,True,0.487,2,False
A228YSXU6H27QT:3RYC5T2D74DLIMSHLXPOWXLLJ3CPR4,stopper_4_a,stopper_4,stopper,a,4,False,None,False,0.391,3,False
A228YSXU6H27QT:3RYC5T2D74DLIMSHLXPOWXLLJ3CPR4,complex_1_b,complex_1,complex,b,1,True,None,True,0.672,4,False
A228YSXU6H27QT:3RYC5T2D74DLIMSHLXPOWXLLJ3CPR4,complex_6_b,complex_6,complex,b,6,False,None,True,0.407,5,False
A228YSXU6H27QT:3RYC5T2D74DLIMSHLXPOWXLLJ3CPR4,complex_2_b,complex_2,complex,b,2,True,Rev,False,0.656,6,False
A228YSXU6H27QT:3RYC5T2D74DLIMSHLXPOWXLLJ3CPR4,complex_3_b,complex_3,complex,b,3,False,Fwd,False,0.934,7,False
A228YSXU6H27QT:3RYC5T2D74DLIMSHLXPOWXLLJ3CPR4,size_4_c,size_4,size,c,4,True,Fwd,True,0.351,8,False
A228YSXU6H27QT:3RYC5T2D74DLIMSHLXPOWXLLJ3CPR4,size_3_c,size_3,size,c,3,False,Fwd,False,0.412,9,False
A228YSXU6H27QT:3RYC5T2D74DLIMSHLXPOWXLLJ3CPR4,size_5_c,size_5,size,c,5,False,Rev,False,0.183,10,False
A228YSXU6H27QT:3RYC5T2D74DLIMSHLXPOWXLLJ3CPR4,porous_6_a,porous_6,porous,a,6,True,Fwd,True,0.109,11,False
A228YSXU6H27QT:3RYC5T2D74DLIMSHLXPOWXLLJ3CPR4,stopper_6_a,stopper_6,stopper,a,6,True,Rev,True,1.388,12,False
A228YSXU6H27QT:3RYC5T2D74DLIMSHLXPOWXLLJ3CPR4,size_2_c,size_2,size,c,2,True,Fwd,True,0.264,13,False
A228YSXU6H27QT:3RYC5T2D74DLIMSHLXPOWXLLJ3CPR4,stopper_3_a,stopper_3,stopper,a,3,True,None,True,0.448,14,False
A228YSXU6H27QT:3RYC5T2D74DLIMSHLXPOWXLLJ3CPR4,complex_5_b,complex_5,complex,b,5,False,None,False,0.311,15,False
A228YSXU6H27QT:3RYC5T2D74DLIMSHLXPOWXLLJ3CPR4,stopper_5_a,stopper_5,stopper,a,5,False,Fwd,False,0.104,16,False
A228YSXU6H27QT:3RYC5T2D74DLIMSHLXPOWXLLJ3CPR4,stopper_2_a,stopper_2,stopper,a,2,True,Rev,True,0.163,17,False
A228YSXU6H27QT:3RYC5T2D74DLIMSHLXPOWXLLJ3CPR4,porous_5_a,porous_5,porous,a,5,False,None,False,0.161,18,False
A228YSXU6H27QT:3RYC5T2D74DLIMSHLXPOWXLLJ3CPR4,size_1_c,size_1,size,c,1,False,Fwd,False,0.928,19,False
A228YSXU6H27QT:3RYC5T2D74DLIMSHLXPOWXLLJ3CPR4,stopper_1_a,stopper_1,stopper,a,1,True,Rev,True,0.154,20,False
A228YSXU6H27QT:3RYC5T2D74DLIMSHLXPOWXLLJ3CPR4,porous_3_a,porous_3,porous,a,3,True,None,True,0.144,21,False
A228YSXU6H27QT:3RYC5T2D74DLIMSHLXPOWXLLJ3CPR4,complex_4_b,complex_4,complex,b,4,False,Rev,False,0.411,22,False
A228YSXU6H27QT:3RYC5T2D74DLIMSHLXPOWXLLJ3CPR4,porous_4_a,porous_4,porous,a,4,True,Fwd,True,0.071,23,False
A23BMD8M0RLV77:3DYGAII7PMSL6LDH8I0OR7BGNHAPQ3,complex_4_b,complex_4,complex,b,4,True,None,True,0.436,0,False
A23BMD8M0RLV77:3DYGAII7PMSL6LDH8I0OR7BGNHAPQ3,size_2_c,size_2,size,c,2,False,Fwd,False,0.299,1,False
A23BMD8M0RLV77:3DYGAII7PMSL6LDH8I0OR7BGNHAPQ3,complex_1_b,complex_1,complex,b,1,False,None,True,0.38,2,False
A23BMD8M0RLV77:3DYGAII7PMSL6LDH8I0OR7BGNHAPQ3,porous_1_a,porous_1,porous,a,1,True,None,False,0.819,3,False
A23BMD8M0RLV77:3DYGAII7PMSL6LDH8I0OR7BGNHAPQ3,complex_3_b,complex_3,complex,b,3,True,Rev,False,0.89,4,False
A23BMD8M0RLV77:3DYGAII7PMSL6LDH8I0OR7BGNHAPQ3,porous_6_a,porous_6,porous,a,6,False,Fwd,False,0.698,5,False
A23BMD8M0RLV77:3DYGAII7PMSL6LDH8I0OR7BGNHAPQ3,porous_2_a,porous_2,porous,a,2,True,None,True,0.558,6,False
A23BMD8M0RLV77:3DYGAII7PMSL6LDH8I0OR7BGNHAPQ3,stopper_2_a,stopper_2,stopper,a,2,False,Rev,False,0.48,7,False
A23BMD8M0RLV77:3DYGAII7PMSL6LDH8I0OR7BGNHAPQ3,stopper_6_a,stopper_6,stopper,a,6,False,Rev,False,0.468,8,False
A23BMD8M0RLV77:3DYGAII7PMSL6LDH8I0OR7BGNHAPQ3,porous_3_a,porous_3,porous,a,3,False,None,False,0.525,9,False
A23BMD8M0RLV77:3DYGAII7PMSL6LDH8I0OR7BGNHAPQ3,complex_2_b,complex_2,complex,b,2,False,Rev,False,1.052,10,False
A23BMD8M0RLV77:3DYGAII7PMSL6LDH8I0OR7BGNHAPQ3,size_4_c,size_4,size,c,4,False,Fwd,False,0.246,11,False
A23BMD8M0RLV77:3DYGAII7PMSL6LDH8I0OR7BGNHAPQ3,size_6_c,size_6,size,c,6,False,None,False,0.124,12,False
A23BMD8M0RLV77:3DYGAII7PMSL6LDH8I0OR7BGNHAPQ3,size_1_c,size_1,size,c,1,True,Rev,True,0.174,13,False
A23BMD8M0RLV77:3DYGAII7PMSL6LDH8I0OR7BGNHAPQ3,stopper_3_a,stopper_3,stopper,a,3,False,None,False,0.744,14,False
A23BMD8M0RLV77:3DYGAII7PMSL6LDH8I0OR7BGNHAPQ3,complex_6_b,complex_6,complex,b,6,True,Fwd,False,0.722,15,False
A23BMD8M0RLV77:3DYGAII7PMSL6LDH8I0OR7BGNHAPQ3,porous_4_a,porous_4,porous,a,4,False,Fwd,False,0.349,16,False
A23BMD8M0RLV77:3DYGAII7PMSL6LDH8I0OR7BGNHAPQ3,stopper_5_a,stopper_5,stopper,a,5,True,Rev,True,0.409,17,False
A23BMD8M0RLV77:3DYGAII7PMSL6LDH8I0OR7BGNHAPQ3,porous_5_a,porous_5,porous,a,5,True,Fwd,True,0.161,18,False
A23BMD8M0RLV77:3DYGAII7PMSL6LDH8I0OR7BGNHAPQ3,stopper_1_a,stopper_1,stopper,a,1,False,Rev,False,0.223,19,False
A23BMD8M0RLV77:3DYGAII7PMSL6LDH8I0OR7BGNHAPQ3,complex_5_b,complex_5,complex,b,5,True,Fwd,True,0.338,20,False
A23BMD8M0RLV77:3DYGAII7PMSL6LDH8I0OR7BGNHAPQ3,size_3_c,size_3,size,c,3,True,Rev,True,0.31,21,False
A23BMD8M0RLV77:3DYGAII7PMSL6LDH8I0OR7BGNHAPQ3,size_5_c,size_5,size,c,5,True,None,True,0.281,22,False
A23BMD8M0RLV77:3DYGAII7PMSL6LDH8I0OR7BGNHAPQ3,stopper_4_a,stopper_4,stopper,a,4,True,Fwd,True,0.059,23,False
A24XBVPC9MYJVX:3JBT3HLQF9MUKDE8VEJ1I0NKSKVZP7,stopper_6_a,stopper_6,stopper,a,6,False,Fwd,False,1.382,0,False
A24XBVPC9MYJVX:3JBT3HLQF9MUKDE8VEJ1I0NKSKVZP7,size_3_c,size_3,size,c,3,True,Fwd,True,0.567,1,False
A24XBVPC9MYJVX:3JBT3HLQF9MUKDE8VEJ1I0NKSKVZP7,complex_4_b,complex_4,complex,b,4,True,Rev,True,0.397,2,False
A24XBVPC9MYJVX:3JBT3HLQF9MUKDE8VEJ1I0NKSKVZP7,porous_5_a,porous_5,porous,a,5,True,None,True,0.522,3,False
A24XBVPC9MYJVX:3JBT3HLQF9MUKDE8VEJ1I0NKSKVZP7,porous_1_a,porous_1,porous,a,1,True,Rev,True,0.285,4,False
A24XBVPC9MYJVX:3JBT3HLQF9MUKDE8VEJ1I0NKSKVZP7,porous_4_a,porous_4,porous,a,4,False,None,False,0.263,5,False
A24XBVPC9MYJVX:3JBT3HLQF9MUKDE8VEJ1I0NKSKVZP7,size_1_c,size_1,size,c,1,True,Fwd,True,0.223,6,False
A24XBVPC9MYJVX:3JBT3HLQF9MUKDE8VEJ1I0NKSKVZP7,complex_2_b,complex_2,complex,b,2,False,Fwd,False,0.864,7,False
A24XBVPC9MYJVX:3JBT3HLQF9MUKDE8VEJ1I0NKSKVZP7,stopper_1_a,stopper_1,stopper,a,1,False,Fwd,True,0.443,8,False
A24XBVPC9MYJVX:3JBT3HLQF9MUKDE8VEJ1I0NKSKVZP7,size_4_c,size_4,size,c,4,False,None,False,0.551,9,False
A24XBVPC9MYJVX:3JBT3HLQF9MUKDE8VEJ1I0NKSKVZP7,stopper_2_a,stopper_2,stopper,a,2,False,Fwd,False,0.285,10,False
A24XBVPC9MYJVX:3JBT3HLQF9MUKDE8VEJ1I0NKSKVZP7,complex_1_b,complex_1,complex,b,1,False,Rev,False,0.124,11,False
A24XBVPC9MYJVX:3JBT3HLQF9MUKDE8VEJ1I0NKSKVZP7,stopper_4_a,stopper_4,stopper,a,4,True,None,True,0.219,12,False
A24XBVPC9MYJVX:3JBT3HLQF9MUKDE8VEJ1I0NKSKVZP7,complex_3_b,complex_3,complex,b,3,True,Fwd,True,0.151,13,False
A24XBVPC9MYJVX:3JBT3HLQF9MUKDE8VEJ1I0NKSKVZP7,porous_2_a,porous_2,porous,a,2,True,Rev,True,0.355,14,False
A24XBVPC9MYJVX:3JBT3HLQF9MUKDE8VEJ1I0NKSKVZP7,size_6_c,size_6,size,c,6,False,Rev,False,0.057,15,False
A24XBVPC9MYJVX:3JBT3HLQF9MUKDE8VEJ1I0NKSKVZP7,porous_3_a,porous_3,porous,a,3,False,Rev,False,0.057,16,False
A24XBVPC9MYJVX:3JBT3HLQF9MUKDE8VEJ1I0NKSKVZP7,size_5_c,size_5,size,c,5,True,Rev,True,0.16,17,False
A24XBVPC9MYJVX:3JBT3HLQF9MUKDE8VEJ1I0NKSKVZP7,stopper_5_a,stopper_5,stopper,a,5,True,Fwd,True,0.11,18,False
A24XBVPC9MYJVX:3JBT3HLQF9MUKDE8VEJ1I0NKSKVZP7,complex_6_b,complex_6,complex,b,6,True,None,True,0.639,19,False
A24XBVPC9MYJVX:3JBT3HLQF9MUKDE8VEJ1I0NKSKVZP7,size_2_c,size_2,size,c,2,False,None,False,0.118,20,False
A24XBVPC9MYJVX:3JBT3HLQF9MUKDE8VEJ1I0NKSKVZP7,porous_6_a,porous_6,porous,a,6,False,None,False,0.278,21,False
A24XBVPC9MYJVX:3JBT3HLQF9MUKDE8VEJ1I0NKSKVZP7,complex_5_b,complex_5,complex,b,5,True,None,True,0.401,22,False
A24XBVPC9MYJVX:3JBT3HLQF9MUKDE8VEJ1I0NKSKVZP7,stopper_3_a,stopper_3,stopper,a,3,False,Rev,False,0.193,23,False
A2541C8MY0BYV3:3U5NZHP4LSM8TSEEPSDUITJFWUYPHR,complex_4_b,complex_4,complex,b,4,False,Fwd,False,0.481,0,True
A2541C8MY0BYV3:3U5NZHP4LSM8TSEEPSDUITJFWUYPHR,porous_6_a,porous_6,porous,a,6,True,None,True,0.384,1,True
A2541C8MY0BYV3:3U5NZHP4LSM8TSEEPSDUITJFWUYPHR,size_2_c,size_2,size,c,2,True,None,True,0.408,2,False
A2541C8MY0BYV3:3U5NZHP4LSM8TSEEPSDUITJFWUYPHR,complex_3_b,complex_3,complex,b,3,False,None,False,0.404,3,False
A2541C8MY0BYV3:3U5NZHP4LSM8TSEEPSDUITJFWUYPHR,size_1_c,size_1,size,c,1,False,None,False,0.325,4,False
A2541C8MY0BYV3:3U5NZHP4LSM8TSEEPSDUITJFWUYPHR,stopper_6_a,stopper_6,stopper,a,6,True,Fwd,True,0.229,5,False
A2541C8MY0BYV3:3U5NZHP4LSM8TSEEPSDUITJFWUYPHR,stopper_1_a,stopper_1,stopper,a,1,True,Fwd,True,0.124,6,False
A2541C8MY0BYV3:3U5NZHP4LSM8TSEEPSDUITJFWUYPHR,complex_1_b,complex_1,complex,b,1,True,Rev,False,0.172,7,False
A2541C8MY0BYV3:3U5NZHP4LSM8TSEEPSDUITJFWUYPHR,porous_2_a,porous_2,porous,a,2,False,Fwd,False,0.246,8,False
A2541C8MY0BYV3:3U5NZHP4LSM8TSEEPSDUITJFWUYPHR,porous_4_a,porous_4,porous,a,4,True,None,True,0.053,9,False
A2541C8MY0BYV3:3U5NZHP4LSM8TSEEPSDUITJFWUYPHR,porous_1_a,porous_1,porous,a,1,False,Fwd,False,0.103,10,False
A2541C8MY0BYV3:3U5NZHP4LSM8TSEEPSDUITJFWUYPHR,complex_6_b,complex_6,complex,b,6,False,Rev,False,1.031,11,False
A2541C8MY0BYV3:3U5NZHP4LSM8TSEEPSDUITJFWUYPHR,complex_2_b,complex_2,complex,b,2,True,Fwd,True,0.419,12,False
A2541C8MY0BYV3:3U5NZHP4LSM8TSEEPSDUITJFWUYPHR,size_5_c,size_5,size,c,5,False,Fwd,False,0.13,13,False
A2541C8MY0BYV3:3U5NZHP4LSM8TSEEPSDUITJFWUYPHR,stopper_2_a,stopper_2,stopper,a,2,True,Fwd,True,0.078,14,False
A2541C8MY0BYV3:3U5NZHP4LSM8TSEEPSDUITJFWUYPHR,porous_5_a,porous_5,porous,a,5,False,Rev,False,0.195,15,False
A2541C8MY0BYV3:3U5NZHP4LSM8TSEEPSDUITJFWUYPHR,stopper_5_a,stopper_5,stopper,a,5,False,None,False,0.158,16,False
A2541C8MY0BYV3:3U5NZHP4LSM8TSEEPSDUITJFWUYPHR,size_4_c,size_4,size,c,4,True,None,False,0.015,17,False
A2541C8MY0BYV3:3U5NZHP4LSM8TSEEPSDUITJFWUYPHR,size_6_c,size_6,size,c,6,True,Rev,True,0.419,18,False
A2541C8MY0BYV3:3U5NZHP4LSM8TSEEPSDUITJFWUYPHR,complex_5_b,complex_5,complex,b,5,False,Rev,False,0.104,19,False
A2541C8MY0BYV3:3U5NZHP4LSM8TSEEPSDUITJFWUYPHR,porous_3_a,porous_3,porous,a,3,True,Rev,True,0.078,20,False
A2541C8MY0BYV3:3U5NZHP4LSM8TSEEPSDUITJFWUYPHR,stopper_3_a,stopper_3,stopper,a,3,True,Rev,True,0.325,21,False
A2541C8MY0BYV3:3U5NZHP4LSM8TSEEPSDUITJFWUYPHR,size_3_c,size_3,size,c,3,False,None,False,0.112,22,False
A2541C8MY0BYV3:3U5NZHP4LSM8TSEEPSDUITJFWUYPHR,stopper_4_a,stopper_4,stopper,a,4,False,Rev,False,0.266,23,False
A25YG9M911WA3T:3FE2ERCCZYSIL901T58K22GG8H1OP5,size_4_c,size_4,size,c,4,True,Fwd,True,1.55,0,False
A25YG9M911WA3T:3FE2ERCCZYSIL901T58K22GG8H1OP5,stopper_1_a,stopper_1,stopper,a,1,True,Rev,True,1.101,1,False
A25YG9M911WA3T:3FE2ERCCZYSIL901T58K22GG8H1OP5,complex_6_b,complex_6,complex,b,6,False,None,False,1.158,2,False
A25YG9M911WA3T:3FE2ERCCZYSIL901T58K22GG8H1OP5,stopper_3_a,stopper_3,stopper,a,3,True,None,True,0.564,3,False
A25YG9M911WA3T:3FE2ERCCZYSIL901T58K22GG8H1OP5,complex_2_b,complex_2,complex,b,2,True,Rev,True,0.393,4,False
A25YG9M911WA3T:3FE2ERCCZYSIL901T58K22GG8H1OP5,porous_4_a,porous_4,porous,a,4,True,Fwd,True,0.226,5,False
A25YG9M911WA3T:3FE2ERCCZYSIL901T58K22GG8H1OP5,complex_3_b,complex_3,complex,b,3,False,Fwd,True,0.115,6,False
A25YG9M911WA3T:3FE2ERCCZYSIL901T58K22GG8H1OP5,size_5_c,size_5,size,c,5,False,Rev,False,0.415,7,False
A25YG9M911WA3T:3FE2ERCCZYSIL901T58K22GG8H1OP5,stopper_2_a,stopper_2,stopper,a,2,True,Rev,True,0.182,8,False
A25YG9M911WA3T:3FE2ERCCZYSIL901T58K22GG8H1OP5,stopper_5_a,stopper_5,stopper,a,5,False,Fwd,False,0.218,9,False
A25YG9M911WA3T:3FE2ERCCZYSIL901T58K22GG8H1OP5,complex_1_b,complex_1,complex,b,1,True,None,True,0.507,10,False
A25YG9M911WA3T:3FE2ERCCZYSIL901T58K22GG8H1OP5,size_6_c,size_6,size,c,6,True,None,True,0.277,11,False
A25YG9M911WA3T:3FE2ERCCZYSIL901T58K22GG8H1OP5,size_3_c,size_3,size,c,3,False,Fwd,False,0.224,12,False
A25YG9M911WA3T:3FE2ERCCZYSIL901T58K22GG8H1OP5,porous_1_a,porous_1,porous,a,1,False,Rev,False,0.712,13,False
A25YG9M911WA3T:3FE2ERCCZYSIL901T58K22GG8H1OP5,stopper_4_a,stopper_4,stopper,a,4,False,None,False,0.249,14,False
A25YG9M911WA3T:3FE2ERCCZYSIL901T58K22GG8H1OP5,size_1_c,size_1,size,c,1,False,Fwd,False,0.127,15,False
A25YG9M911WA3T:3FE2ERCCZYSIL901T58K22GG8H1OP5,complex_4_b,complex_4,complex,b,4,False,Rev,False,0.188,16,False
A25YG9M911WA3T:3FE2ERCCZYSIL901T58K22GG8H1OP5,porous_6_a,porous_6,porous,a,6,True,Fwd,True,0.286,17,False
A25YG9M911WA3T:3FE2ERCCZYSIL901T58K22GG8H1OP5,porous_3_a,porous_3,porous,a,3,True,None,True,0.191,18,False
A25YG9M911WA3T:3FE2ERCCZYSIL901T58K22GG8H1OP5,stopper_6_a,stopper_6,stopper,a,6,True,Rev,True,0.221,19,False
A25YG9M911WA3T:3FE2ERCCZYSIL901T58K22GG8H1OP5,porous_2_a,porous_2,porous,a,2,False,Rev,False,0.048,20,False
A25YG9M911WA3T:3FE2ERCCZYSIL901T58K22GG8H1OP5,complex_5_b,complex_5,complex,b,5,False,None,False,0.32,21,False
A25YG9M911WA3T:3FE2ERCCZYSIL901T58K22GG8H1OP5,size_2_c,size_2,size,c,2,True,Fwd,True,0.275,22,False
A25YG9M911WA3T:3FE2ERCCZYSIL901T58K22GG8H1OP5,porous_5_a,porous_5,porous,a,5,False,None,False,0.193,23,False
A26RO8GGTQAXGG:3MB8LZR5BGD94X0O3LNKE4QNJ1HKL8,complex_6_b,complex_6,complex,b,6,True,None,True,1.422,0,False
A26RO8GGTQAXGG:3MB8LZR5BGD94X0O3LNKE4QNJ1HKL8,porous_4_a,porous_4,porous,a,4,False,None,False,0.526,1,False
A26RO8GGTQAXGG:3MB8LZR5BGD94X0O3LNKE4QNJ1HKL8,size_4_c,size_4,size,c,4,False,None,False,0.457,2,False
A26RO8GGTQAXGG:3MB8LZR5BGD94X0O3LNKE4QNJ1HKL8,size_6_c,size_6,size,c,6,False,Rev,False,0.123,3,False
A26RO8GGTQAXGG:3MB8LZR5BGD94X0O3LNKE4QNJ1HKL8,porous_5_a,porous_5,porous,a,5,True,None,True,0.851,4,False
A26RO8GGTQAXGG:3MB8LZR5BGD94X0O3LNKE4QNJ1HKL8,size_3_c,size_3,size,c,3,True,Fwd,True,0.726,5,False
A26RO8GGTQAXGG:3MB8LZR5BGD94X0O3LNKE4QNJ1HKL8,stopper_1_a,stopper_1,stopper,a,1,False,Fwd,False,0.517,6,False
A26RO8GGTQAXGG:3MB8LZR5BGD94X0O3LNKE4QNJ1HKL8,porous_6_a,porous_6,porous,a,6,False,None,False,0.25,7,False
A26RO8GGTQAXGG:3MB8LZR5BGD94X0O3LNKE4QNJ1HKL8,complex_2_b,complex_2,complex,b,2,False,Fwd,False,0.198,8,False
A26RO8GGTQAXGG:3MB8LZR5BGD94X0O3LNKE4QNJ1HKL8,stopper_6_a,stopper_6,stopper,a,6,False,Fwd,False,0.368,9,False
A26RO8GGTQAXGG:3MB8LZR5BGD94X0O3LNKE4QNJ1HKL8,stopper_4_a,stopper_4,stopper,a,4,True,None,False,0.354,10,False
A26RO8GGTQAXGG:3MB8LZR5BGD94X0O3LNKE4QNJ1HKL8,size_1_c,size_1,size,c,1,True,Fwd,True,0.746,11,False
A26RO8GGTQAXGG:3MB8LZR5BGD94X0O3LNKE4QNJ1HKL8,size_5_c,size_5,size,c,5,True,Rev,True,0.835,12,False
A26RO8GGTQAXGG:3MB8LZR5BGD94X0O3LNKE4QNJ1HKL8,stopper_5_a,stopper_5,stopper,a,5,True,Fwd,True,0.87,13,False
A26RO8GGTQAXGG:3MB8LZR5BGD94X0O3LNKE4QNJ1HKL8,porous_2_a,porous_2,porous,a,2,True,Rev,True,0.464,14,False
A26RO8GGTQAXGG:3MB8LZR5BGD94X0O3LNKE4QNJ1HKL8,stopper_3_a,stopper_3,stopper,a,3,False,Rev,False,0.138,15,False
A26RO8GGTQAXGG:3MB8LZR5BGD94X0O3LNKE4QNJ1HKL8,porous_3_a,porous_3,porous,a,3,False,Rev,False,0.385,16,False
A26RO8GGTQAXGG:3MB8LZR5BGD94X0O3LNKE4QNJ1HKL8,complex_1_b,complex_1,complex,b,1,False,Rev,False,0.255,17,False
A26RO8GGTQAXGG:3MB8LZR5BGD94X0O3LNKE4QNJ1HKL8,porous_1_a,porous_1,porous,a,1,True,Rev,True,0.448,18,False
A26RO8GGTQAXGG:3MB8LZR5BGD94X0O3LNKE4QNJ1HKL8,complex_3_b,complex_3,complex,b,3,True,Fwd,False,0.627,19,False
A26RO8GGTQAXGG:3MB8LZR5BGD94X0O3LNKE4QNJ1HKL8,stopper_2_a,stopper_2,stopper,a,2,False,Fwd,False,0.538,20,False
A26RO8GGTQAXGG:3MB8LZR5BGD94X0O3LNKE4QNJ1HKL8,size_2_c,size_2,size,c,2,False,None,True,0.421,21,False
A26RO8GGTQAXGG:3MB8LZR5BGD94X0O3LNKE4QNJ1HKL8,complex_4_b,complex_4,complex,b,4,True,Rev,True,1.227,22,False
A26RO8GGTQAXGG:3MB8LZR5BGD94X0O3LNKE4QNJ1HKL8,complex_5_b,complex_5,complex,b,5,True,None,True,1.31,23,False
A26TY8FHMJ183C:3P59JYT76M426U43NOJ70ZEAWFQT29,size_1_c,size_1,size,c,1,True,Fwd,True,0.055,0,False
A26TY8FHMJ183C:3P59JYT76M426U43NOJ70ZEAWFQT29,size_6_c,size_6,size,c,6,False,Rev,False,0.056,1,False
A26TY8FHMJ183C:3P59JYT76M426U43NOJ70ZEAWFQT29,complex_1_b,complex_1,complex,b,1,False,Rev,False,0.087,2,False
A26TY8FHMJ183C:3P59JYT76M426U43NOJ70ZEAWFQT29,size_3_c,size_3,size,c,3,True,Fwd,True,0.359,3,False
A26TY8FHMJ183C:3P59JYT76M426U43NOJ70ZEAWFQT29,porous_4_a,porous_4,porous,a,4,False,None,False,0.286,4,False
A26TY8FHMJ183C:3P59JYT76M426U43NOJ70ZEAWFQT29,stopper_3_a,stopper_3,stopper,a,3,False,Rev,False,0.103,5,False
A26TY8FHMJ183C:3P59JYT76M426U43NOJ70ZEAWFQT29,complex_2_b,complex_2,complex,b,2,False,Fwd,False,0.35,6,False
A26TY8FHMJ183C:3P59JYT76M426U43NOJ70ZEAWFQT29,size_5_c,size_5,size,c,5,True,Rev,False,0.099,7,False
A26TY8FHMJ183C:3P59JYT76M426U43NOJ70ZEAWFQT29,porous_2_a,porous_2,porous,a,2,True,Rev,True,0.229,8,False
A26TY8FHMJ183C:3P59JYT76M426U43NOJ70ZEAWFQT29,porous_5_a,porous_5,porous,a,5,True,None,True,0.166,9,False
A26TY8FHMJ183C:3P59JYT76M426U43NOJ70ZEAWFQT29,complex_4_b,complex_4,complex,b,4,True,Rev,True,0.07,10,False
A26TY8FHMJ183C:3P59JYT76M426U43NOJ70ZEAWFQT29,stopper_1_a,stopper_1,stopper,a,1,False,Fwd,False,0.107,11,False
A26TY8FHMJ183C:3P59JYT76M426U43NOJ70ZEAWFQT29,stopper_4_a,stopper_4,stopper,a,4,True,None,True,0.082,12,False
A26TY8FHMJ183C:3P59JYT76M426U43NOJ70ZEAWFQT29,porous_1_a,porous_1,porous,a,1,True,Rev,True,0.982,13,False
A26TY8FHMJ183C:3P59JYT76M426U43NOJ70ZEAWFQT29,size_2_c,size_2,size,c,2,False,None,False,0.17,14,False
A26TY8FHMJ183C:3P59JYT76M426U43NOJ70ZEAWFQT29,stopper_5_a,stopper_5,stopper,a,5,True,Fwd,True,0.105,15,False
A26TY8FHMJ183C:3P59JYT76M426U43NOJ70ZEAWFQT29,stopper_2_a,stopper_2,stopper,a,2,False,Fwd,False,0.016,16,False
A26TY8FHMJ183C:3P59JYT76M426U43NOJ70ZEAWFQT29,porous_3_a,porous_3,porous,a,3,False,Rev,False,0.121,17,False
A26TY8FHMJ183C:3P59JYT76M426U43NOJ70ZEAWFQT29,size_4_c,size_4,size,c,4,False,None,False,0.269,18,False
A26TY8FHMJ183C:3P59JYT76M426U43NOJ70ZEAWFQT29,stopper_6_a,stopper_6,stopper,a,6,False,Fwd,False,0.051,19,False
A26TY8FHMJ183C:3P59JYT76M426U43NOJ70ZEAWFQT29,porous_6_a,porous_6,porous,a,6,False,None,False,0.089,20,False
A26TY8FHMJ183C:3P59JYT76M426U43NOJ70ZEAWFQT29,complex_3_b,complex_3,complex,b,3,True,Fwd,True,0.322,21,False
A26TY8FHMJ183C:3P59JYT76M426U43NOJ70ZEAWFQT29,complex_5_b,complex_5,complex,b,5,True,None,True,0.394,22,False
A26TY8FHMJ183C:3P59JYT76M426U43NOJ70ZEAWFQT29,complex_6_b,complex_6,complex,b,6,True,None,True,0.37,23,False
A27BRY2BI6NNPW:3NG53N1RLW3F0HDLMOJO5GQGTCXP83,complex_4_b,complex_4,complex,b,4,True,Fwd,True,0.13,0,False
A27BRY2BI6NNPW:3NG53N1RLW3F0HDLMOJO5GQGTCXP83,size_5_c,size_5,size,c,5,True,Fwd,False,0.056,1,False
A27BRY2BI6NNPW:3NG53N1RLW3F0HDLMOJO5GQGTCXP83,stopper_6_a,stopper_6,stopper,a,6,False,None,False,0.306,2,False
A27BRY2BI6NNPW:3NG53N1RLW3F0HDLMOJO5GQGTCXP83,complex_2_b,complex_2,complex,b,2,False,None,False,0.632,3,False
A27BRY2BI6NNPW:3NG53N1RLW3F0HDLMOJO5GQGTCXP83,size_4_c,size_4,size,c,4,False,Rev,True,0.1,4,False
A27BRY2BI6NNPW:3NG53N1RLW3F0HDLMOJO5GQGTCXP83,porous_4_a,porous_4,porous,a,4,False,Rev,False,0.132,5,False
A27BRY2BI6NNPW:3NG53N1RLW3F0HDLMOJO5GQGTCXP83,porous_3_a,porous_3,porous,a,3,False,Fwd,False,0.091,6,False
A27BRY2BI6NNPW:3NG53N1RLW3F0HDLMOJO5GQGTCXP83,complex_5_b,complex_5,complex,b,5,True,Rev,True,0.136,7,False
A27BRY2BI6NNPW:3NG53N1RLW3F0HDLMOJO5GQGTCXP83,stopper_1_a,stopper_1,stopper,a,1,False,None,False,0.662,8,False
A27BRY2BI6NNPW:3NG53N1RLW3F0HDLMOJO5GQGTCXP83,complex_1_b,complex_1,complex,b,1,False,Fwd,False,0.28,9,False
A27BRY2BI6NNPW:3NG53N1RLW3F0HDLMOJO5GQGTCXP83,size_3_c,size_3,size,c,3,True,None,True,0.597,10,False
A27BRY2BI6NNPW:3NG53N1RLW3F0HDLMOJO5GQGTCXP83,complex_3_b,complex_3,complex,b,3,True,None,True,0.52,11,False
A27BRY2BI6NNPW:3NG53N1RLW3F0HDLMOJO5GQGTCXP83,size_6_c,size_6,size,c,6,False,Fwd,False,0.099,12,False
A27BRY2BI6NNPW:3NG53N1RLW3F0HDLMOJO5GQGTCXP83,porous_6_a,porous_6,porous,a,6,False,Rev,False,0.165,13,False
A27BRY2BI6NNPW:3NG53N1RLW3F0HDLMOJO5GQGTCXP83,size_1_c,size_1,size,c,1,True,None,True,0.353,14,False
A27BRY2BI6NNPW:3NG53N1RLW3F0HDLMOJO5GQGTCXP83,size_2_c,size_2,size,c,2,False,Rev,False,0.165,15,False
A27BRY2BI6NNPW:3NG53N1RLW3F0HDLMOJO5GQGTCXP83,stopper_2_a,stopper_2,stopper,a,2,False,None,False,0.117,16,False
A27BRY2BI6NNPW:3NG53N1RLW3F0HDLMOJO5GQGTCXP83,porous_5_a,porous_5,porous,a,5,True,Rev,False,0.015,17,False
A27BRY2BI6NNPW:3NG53N1RLW3F0HDLMOJO5GQGTCXP83,porous_1_a,porous_1,porous,a,1,True,Fwd,True,0.124,18,False
A27BRY2BI6NNPW:3NG53N1RLW3F0HDLMOJO5GQGTCXP83,stopper_3_a,stopper_3,stopper,a,3,False,Fwd,False,0.3,19,False
A27BRY2BI6NNPW:3NG53N1RLW3F0HDLMOJO5GQGTCXP83,porous_2_a,porous_2,porous,a,2,True,Fwd,True,0.025,20,False
A27BRY2BI6NNPW:3NG53N1RLW3F0HDLMOJO5GQGTCXP83,stopper_5_a,stopper_5,stopper,a,5,True,None,True,0.073,21,False
A27BRY2BI6NNPW:3NG53N1RLW3F0HDLMOJO5GQGTCXP83,complex_6_b,complex_6,complex,b,6,True,Rev,False,0.183,22,False
A27BRY2BI6NNPW:3NG53N1RLW3F0HDLMOJO5GQGTCXP83,stopper_4_a,stopper_4,stopper,a,4,True,Rev,True,0.128,23,False
A27MJOV91GA8R3:3WZ36BJEV40WU74Z6HCI1SHEQKSTBY,complex_4_b,complex_4,complex,b,4,False,Rev,False,0.385,0,False
A27MJOV91GA8R3:3WZ36BJEV40WU74Z6HCI1SHEQKSTBY,size_4_c,size_4,size,c,4,True,Fwd,True,0.504,1,False
A27MJOV91GA8R3:3WZ36BJEV40WU74Z6HCI1SHEQKSTBY,stopper_3_a,stopper_3,stopper,a,3,True,None,True,0.434,2,False
A27MJOV91GA8R3:3WZ36BJEV40WU74Z6HCI1SHEQKSTBY,size_1_c,size_1,size,c,1,False,Fwd,False,0.276,3,False
A27MJOV91GA8R3:3WZ36BJEV40WU74Z6HCI1SHEQKSTBY,size_5_c,size_5,size,c,5,False,Rev,True,0.132,4,False
A27MJOV91GA8R3:3WZ36BJEV40WU74Z6HCI1SHEQKSTBY,stopper_1_a,stopper_1,stopper,a,1,True,Rev,True,0.398,5,False
A27MJOV91GA8R3:3WZ36BJEV40WU74Z6HCI1SHEQKSTBY,porous_4_a,porous_4,porous,a,4,True,Fwd,True,0.282,6,False
A27MJOV91GA8R3:3WZ36BJEV40WU74Z6HCI1SHEQKSTBY,porous_3_a,porous_3,porous,a,3,True,None,True,0.575,7,False
A27MJOV91GA8R3:3WZ36BJEV40WU74Z6HCI1SHEQKSTBY,complex_3_b,complex_3,complex,b,3,False,Fwd,False,0.656,8,False
A27MJOV91GA8R3:3WZ36BJEV40WU74Z6HCI1SHEQKSTBY,complex_1_b,complex_1,complex,b,1,True,None,True,0.293,9,False
A27MJOV91GA8R3:3WZ36BJEV40WU74Z6HCI1SHEQKSTBY,size_3_c,size_3,size,c,3,False,Fwd,True,0.368,10,False
A27MJOV91GA8R3:3WZ36BJEV40WU74Z6HCI1SHEQKSTBY,stopper_5_a,stopper_5,stopper,a,5,False,Fwd,False,0.413,11,False
A27MJOV91GA8R3:3WZ36BJEV40WU74Z6HCI1SHEQKSTBY,porous_1_a,porous_1,porous,a,1,False,Rev,False,0.182,12,False
A27MJOV91GA8R3:3WZ36BJEV40WU74Z6HCI1SHEQKSTBY,porous_6_a,porous_6,porous,a,6,True,Fwd,True,0.162,13,False
A27MJOV91GA8R3:3WZ36BJEV40WU74Z6HCI1SHEQKSTBY,porous_5_a,porous_5,porous,a,5,False,None,False,0.21,14,False
A27MJOV91GA8R3:3WZ36BJEV40WU74Z6HCI1SHEQKSTBY,complex_2_b,complex_2,complex,b,2,True,Rev,False,0.258,15,False
A27MJOV91GA8R3:3WZ36BJEV40WU74Z6HCI1SHEQKSTBY,complex_5_b,complex_5,complex,b,5,False,None,False,0.56,16,False
A27MJOV91GA8R3:3WZ36BJEV40WU74Z6HCI1SHEQKSTBY,size_2_c,size_2,size,c,2,True,Fwd,True,0.049,17,False
A27MJOV91GA8R3:3WZ36BJEV40WU74Z6HCI1SHEQKSTBY,porous_2_a,porous_2,porous,a,2,False,Rev,False,0.105,18,False
A27MJOV91GA8R3:3WZ36BJEV40WU74Z6HCI1SHEQKSTBY,stopper_4_a,stopper_4,stopper,a,4,False,None,False,0.104,19,False
A27MJOV91GA8R3:3WZ36BJEV40WU74Z6HCI1SHEQKSTBY,stopper_6_a,stopper_6,stopper,a,6,True,Rev,False,0.009,20,False
A27MJOV91GA8R3:3WZ36BJEV40WU74Z6HCI1SHEQKSTBY,stopper_2_a,stopper_2,stopper,a,2,True,Rev,True,0.172,21,False
A27MJOV91GA8R3:3WZ36BJEV40WU74Z6HCI1SHEQKSTBY,complex_6_b,complex_6,complex,b,6,False,None,False,0.811,22,False
A27MJOV91GA8R3:3WZ36BJEV40WU74Z6HCI1SHEQKSTBY,size_6_c,size_6,size,c,6,True,None,True,0.143,23,False
A28FA9S6Y1M1I7:3Z4XG4ZF49BK9QFC8FT5ZTCJVB78XB,complex_5_b,complex_5,complex,b,5,True,Rev,True,1.217,0,False
A28FA9S6Y1M1I7:3Z4XG4ZF49BK9QFC8FT5ZTCJVB78XB,stopper_6_a,stopper_6,stopper,a,6,False,None,False,0.298,1,False
A28FA9S6Y1M1I7:3Z4XG4ZF49BK9QFC8FT5ZTCJVB78XB,stopper_4_a,stopper_4,stopper,a,4,True,Rev,True,0.113,2,False
A28FA9S6Y1M1I7:3Z4XG4ZF49BK9QFC8FT5ZTCJVB78XB,stopper_3_a,stopper_3,stopper,a,3,False,Fwd,False,0.596,3,False
A28FA9S6Y1M1I7:3Z4XG4ZF49BK9QFC8FT5ZTCJVB78XB,stopper_2_a,stopper_2,stopper,a,2,False,None,False,0.193,4,False
A28FA9S6Y1M1I7:3Z4XG4ZF49BK9QFC8FT5ZTCJVB78XB,complex_3_b,complex_3,complex,b,3,True,None,True,0.791,5,False
A28FA9S6Y1M1I7:3Z4XG4ZF49BK9QFC8FT5ZTCJVB78XB,complex_6_b,complex_6,complex,b,6,True,Rev,False,0.451,6,False
A28FA9S6Y1M1I7:3Z4XG4ZF49BK9QFC8FT5ZTCJVB78XB,size_3_c,size_3,size,c,3,True,None,False,0.222,7,False
A28FA9S6Y1M1I7:3Z4XG4ZF49BK9QFC8FT5ZTCJVB78XB,porous_2_a,porous_2,porous,a,2,True,Fwd,True,0.203,8,False
A28FA9S6Y1M1I7:3Z4XG4ZF49BK9QFC8FT5ZTCJVB78XB,stopper_5_a,stopper_5,stopper,a,5,True,None,True,0.23,9,False
A28FA9S6Y1M1I7:3Z4XG4ZF49BK9QFC8FT5ZTCJVB78XB,porous_6_a,porous_6,porous,a,6,False,Rev,False,0.155,10,False
A28FA9S6Y1M1I7:3Z4XG4ZF49BK9QFC8FT5ZTCJVB78XB,size_6_c,size_6,size,c,6,False,Fwd,False,0.132,11,False
A28FA9S6Y1M1I7:3Z4XG4ZF49BK9QFC8FT5ZTCJVB78XB,size_2_c,size_2,size,c,2,False,Rev,False,0.15,12,False
A28FA9S6Y1M1I7:3Z4XG4ZF49BK9QFC8FT5ZTCJVB78XB,complex_4_b,complex_4,complex,b,4,True,Fwd,True,0.433,13,False
A28FA9S6Y1M1I7:3Z4XG4ZF49BK9QFC8FT5ZTCJVB78XB,porous_5_a,porous_5,porous,a,5,True,Rev,True,0.232,14,False
A28FA9S6Y1M1I7:3Z4XG4ZF49BK9QFC8FT5ZTCJVB78XB,stopper_1_a,stopper_1,stopper,a,1,False,None,False,0.057,15,False
A28FA9S6Y1M1I7:3Z4XG4ZF49BK9QFC8FT5ZTCJVB78XB,complex_1_b,complex_1,complex,b,1,False,Fwd,False,0.698,16,False
A28FA9S6Y1M1I7:3Z4XG4ZF49BK9QFC8FT5ZTCJVB78XB,complex_2_b,complex_2,complex,b,2,False,None,False,0.283,17,False
A28FA9S6Y1M1I7:3Z4XG4ZF49BK9QFC8FT5ZTCJVB78XB,porous_3_a,porous_3,porous,a,3,False,Fwd,False,0.016,18,False
A28FA9S6Y1M1I7:3Z4XG4ZF49BK9QFC8FT5ZTCJVB78XB,porous_4_a,porous_4,porous,a,4,False,Rev,False,0.071,19,False
A28FA9S6Y1M1I7:3Z4XG4ZF49BK9QFC8FT5ZTCJVB78XB,porous_1_a,porous_1,porous,a,1,True,Fwd,False,0.103,20,False
A28FA9S6Y1M1I7:3Z4XG4ZF49BK9QFC8FT5ZTCJVB78XB,size_1_c,size_1,size,c,1,True,None,True,0.242,21,False
A28FA9S6Y1M1I7:3Z4XG4ZF49BK9QFC8FT5ZTCJVB78XB,size_4_c,size_4,size,c,4,False,Rev,False,0.137,22,False
A28FA9S6Y1M1I7:3Z4XG4ZF49BK9QFC8FT5ZTCJVB78XB,size_5_c,size_5,size,c,5,True,Fwd,False,0.082,23,False
A296HTKGCX7FY9:39U1BHVTDMBRRC0MROXCJ9J22TR3TV,stopper_6_a,stopper_6,stopper,a,6,True,None,True,1.693,0,False
A296HTKGCX7FY9:39U1BHVTDMBRRC0MROXCJ9J22TR3TV,complex_4_b,complex_4,complex,b,4,False,None,False,0.747,1,False
A296HTKGCX7FY9:39U1BHVTDMBRRC0MROXCJ9J22TR3TV,porous_6_a,porous_6,porous,a,6,True,Rev,True,0.699,2,False
A296HTKGCX7FY9:39U1BHVTDMBRRC0MROXCJ9J22TR3TV,size_1_c,size_1,size,c,1,False,Rev,False,0.443,3,False
A296HTKGCX7FY9:39U1BHVTDMBRRC0MROXCJ9J22TR3TV,porous_2_a,porous_2,porous,a,2,False,None,False,0.592,4,False
A296HTKGCX7FY9:39U1BHVTDMBRRC0MROXCJ9J22TR3TV,porous_3_a,porous_3,porous,a,3,True,Fwd,True,0.231,5,False
A296HTKGCX7FY9:39U1BHVTDMBRRC0MROXCJ9J22TR3TV,stopper_5_a,stopper_5,stopper,a,5,False,Rev,False,0.12,6,False
A296HTKGCX7FY9:39U1BHVTDMBRRC0MROXCJ9J22TR3TV,complex_2_b,complex_2,complex,b,2,True,None,True,1.115,7,False
A296HTKGCX7FY9:39U1BHVTDMBRRC0MROXCJ9J22TR3TV,complex_5_b,complex_5,complex,b,5,False,Fwd,False,0.334,8,False
A296HTKGCX7FY9:39U1BHVTDMBRRC0MROXCJ9J22TR3TV,size_4_c,size_4,size,c,4,True,Rev,True,0.217,9,False
A296HTKGCX7FY9:39U1BHVTDMBRRC0MROXCJ9J22TR3TV,complex_1_b,complex_1,complex,b,1,True,Fwd,True,0.33,10,False
A296HTKGCX7FY9:39U1BHVTDMBRRC0MROXCJ9J22TR3TV,size_5_c,size_5,size,c,5,False,None,False,0.29,11,False
A296HTKGCX7FY9:39U1BHVTDMBRRC0MROXCJ9J22TR3TV,stopper_4_a,stopper_4,stopper,a,4,False,Fwd,False,0.061,12,False
A296HTKGCX7FY9:39U1BHVTDMBRRC0MROXCJ9J22TR3TV,stopper_2_a,stopper_2,stopper,a,2,True,None,True,0.893,13,False
A296HTKGCX7FY9:39U1BHVTDMBRRC0MROXCJ9J22TR3TV,stopper_1_a,stopper_1,stopper,a,1,True,None,True,0.292,14,False
A296HTKGCX7FY9:39U1BHVTDMBRRC0MROXCJ9J22TR3TV,porous_4_a,porous_4,porous,a,4,True,Rev,True,0.906,15,False
A296HTKGCX7FY9:39U1BHVTDMBRRC0MROXCJ9J22TR3TV,stopper_3_a,stopper_3,stopper,a,3,True,Fwd,True,0.225,16,False
A296HTKGCX7FY9:39U1BHVTDMBRRC0MROXCJ9J22TR3TV,complex_3_b,complex_3,complex,b,3,False,Rev,False,0.34,17,False
A296HTKGCX7FY9:39U1BHVTDMBRRC0MROXCJ9J22TR3TV,size_2_c,size_2,size,c,2,True,Rev,True,0.189,18,False
A296HTKGCX7FY9:39U1BHVTDMBRRC0MROXCJ9J22TR3TV,porous_1_a,porous_1,porous,a,1,False,None,False,0.082,19,False
A296HTKGCX7FY9:39U1BHVTDMBRRC0MROXCJ9J22TR3TV,complex_6_b,complex_6,complex,b,6,False,Fwd,False,0.068,20,False
A296HTKGCX7FY9:39U1BHVTDMBRRC0MROXCJ9J22TR3TV,size_6_c,size_6,size,c,6,True,Fwd,True,0.256,21,False
A296HTKGCX7FY9:39U1BHVTDMBRRC0MROXCJ9J22TR3TV,size_3_c,size_3,size,c,3,False,Rev,False,0.105,22,False
A296HTKGCX7FY9:39U1BHVTDMBRRC0MROXCJ9J22TR3TV,porous_5_a,porous_5,porous,a,5,False,Fwd,True,0.103,23,False
A2AMQX0BQZXG9N:32EYX73OY1TYAR0D2JOI638KRK6UR7,complex_6_b,complex_6,complex,b,6,True,Rev,False,0.156,0,False
A2AMQX0BQZXG9N:32EYX73OY1TYAR0D2JOI638KRK6UR7,size_4_c,size_4,size,c,4,False,Rev,False,0.292,1,False
A2AMQX0BQZXG9N:32EYX73OY1TYAR0D2JOI638KRK6UR7,size_1_c,size_1,size,c,1,True,None,,-1.0,2,False
A2AMQX0BQZXG9N:32EYX73OY1TYAR0D2JOI638KRK6UR7,stopper_3_a,stopper_3,stopper,a,3,False,Fwd,False,0.268,3,False
A2AMQX0BQZXG9N:32EYX73OY1TYAR0D2JOI638KRK6UR7,complex_4_b,complex_4,complex,b,4,True,Fwd,False,0.266,4,False
A2AMQX0BQZXG9N:32EYX73OY1TYAR0D2JOI638KRK6UR7,size_6_c,size_6,size,c,6,False,Fwd,False,0.161,5,False
A2AMQX0BQZXG9N:32EYX73OY1TYAR0D2JOI638KRK6UR7,porous_4_a,porous_4,porous,a,4,False,Rev,False,2.4,6,False
A2AMQX0BQZXG9N:32EYX73OY1TYAR0D2JOI638KRK6UR7,porous_6_a,porous_6,porous,a,6,False,Rev,False,0.097,7,False
A2AMQX0BQZXG9N:32EYX73OY1TYAR0D2JOI638KRK6UR7,stopper_1_a,stopper_1,stopper,a,1,False,None,False,0.058,8,False
A2AMQX0BQZXG9N:32EYX73OY1TYAR0D2JOI638KRK6UR7,size_3_c,size_3,size,c,3,True,None,True,0.137,9,False
A2AMQX0BQZXG9N:32EYX73OY1TYAR0D2JOI638KRK6UR7,stopper_2_a,stopper_2,stopper,a,2,False,None,False,0.136,10,False
A2AMQX0BQZXG9N:32EYX73OY1TYAR0D2JOI638KRK6UR7,porous_1_a,porous_1,porous,a,1,True,Fwd,False,0.11,11,False
A2AMQX0BQZXG9N:32EYX73OY1TYAR0D2JOI638KRK6UR7,complex_2_b,complex_2,complex,b,2,False,None,False,1.158,12,False
A2AMQX0BQZXG9N:32EYX73OY1TYAR0D2JOI638KRK6UR7,stopper_6_a,stopper_6,stopper,a,6,False,None,False,0.378,13,False
A2AMQX0BQZXG9N:32EYX73OY1TYAR0D2JOI638KRK6UR7,stopper_4_a,stopper_4,stopper,a,4,True,Rev,True,0.266,14,False
A2AMQX0BQZXG9N:32EYX73OY1TYAR0D2JOI638KRK6UR7,porous_2_a,porous_2,porous,a,2,True,Fwd,True,0.108,15,False
A2AMQX0BQZXG9N:32EYX73OY1TYAR0D2JOI638KRK6UR7,size_5_c,size_5,size,c,5,True,Fwd,,-1.0,16,False
A2AMQX0BQZXG9N:32EYX73OY1TYAR0D2JOI638KRK6UR7,complex_1_b,complex_1,complex,b,1,False,Fwd,False,0.183,17,False
A2AMQX0BQZXG9N:32EYX73OY1TYAR0D2JOI638KRK6UR7,complex_5_b,complex_5,complex,b,5,True,Rev,True,0.19,18,False
A2AMQX0BQZXG9N:32EYX73OY1TYAR0D2JOI638KRK6UR7,stopper_5_a,stopper_5,stopper,a,5,True,None,True,0.214,19,False
A2AMQX0BQZXG9N:32EYX73OY1TYAR0D2JOI638KRK6UR7,size_2_c,size_2,size,c,2,False,Rev,False,0.085,20,False
A2AMQX0BQZXG9N:32EYX73OY1TYAR0D2JOI638KRK6UR7,porous_3_a,porous_3,porous,a,3,False,Fwd,False,0.158,21,False
A2AMQX0BQZXG9N:32EYX73OY1TYAR0D2JOI638KRK6UR7,complex_3_b,complex_3,complex,b,3,True,None,True,0.517,22,False
A2AMQX0BQZXG9N:32EYX73OY1TYAR0D2JOI638KRK6UR7,porous_5_a,porous_5,porous,a,5,True,Rev,True,0.341,23,False
A2BA9Y6VGW6WS1:3GLB5JMZFYFL4ZGD0D4HXZQP3BIGD5,porous_4_a,porous_4,porous,a,4,True,Fwd,False,0.414,0,False
A2BA9Y6VGW6WS1:3GLB5JMZFYFL4ZGD0D4HXZQP3BIGD5,porous_2_a,porous_2,porous,a,2,False,Rev,False,0.53,1,False
A2BA9Y6VGW6WS1:3GLB5JMZFYFL4ZGD0D4HXZQP3BIGD5,size_4_c,size_4,size,c,4,True,Fwd,True,0.468,2,False
A2BA9Y6VGW6WS1:3GLB5JMZFYFL4ZGD0D4HXZQP3BIGD5,size_3_c,size_3,size,c,3,False,Fwd,False,0.203,3,False
A2BA9Y6VGW6WS1:3GLB5JMZFYFL4ZGD0D4HXZQP3BIGD5,stopper_4_a,stopper_4,stopper,a,4,False,None,False,0.408,4,False
A2BA9Y6VGW6WS1:3GLB5JMZFYFL4ZGD0D4HXZQP3BIGD5,stopper_6_a,stopper_6,stopper,a,6,True,Rev,False,0.9,5,False
A2BA9Y6VGW6WS1:3GLB5JMZFYFL4ZGD0D4HXZQP3BIGD5,porous_1_a,porous_1,porous,a,1,False,Rev,False,0.335,6,False
A2BA9Y6VGW6WS1:3GLB5JMZFYFL4ZGD0D4HXZQP3BIGD5,size_2_c,size_2,size,c,2,True,Fwd,True,0.673,7,False
A2BA9Y6VGW6WS1:3GLB5JMZFYFL4ZGD0D4HXZQP3BIGD5,complex_4_b,complex_4,complex,b,4,False,Rev,False,0.213,8,False
A2BA9Y6VGW6WS1:3GLB5JMZFYFL4ZGD0D4HXZQP3BIGD5,porous_3_a,porous_3,porous,a,3,True,None,True,0.455,9,False
A2BA9Y6VGW6WS1:3GLB5JMZFYFL4ZGD0D4HXZQP3BIGD5,complex_6_b,complex_6,complex,b,6,False,None,False,0.666,10,False
A2BA9Y6VGW6WS1:3GLB5JMZFYFL4ZGD0D4HXZQP3BIGD5,stopper_3_a,stopper_3,stopper,a,3,True,None,True,0.516,11,False
A2BA9Y6VGW6WS1:3GLB5JMZFYFL4ZGD0D4HXZQP3BIGD5,size_5_c,size_5,size,c,5,False,Rev,False,0.187,12,False
A2BA9Y6VGW6WS1:3GLB5JMZFYFL4ZGD0D4HXZQP3BIGD5,size_6_c,size_6,size,c,6,True,None,True,0.243,13,False
A2BA9Y6VGW6WS1:3GLB5JMZFYFL4ZGD0D4HXZQP3BIGD5,complex_1_b,complex_1,complex,b,1,True,None,True,1.085,14,False
A2BA9Y6VGW6WS1:3GLB5JMZFYFL4ZGD0D4HXZQP3BIGD5,size_1_c,size_1,size,c,1,False,Fwd,False,0.089,15,False
A2BA9Y6VGW6WS1:3GLB5JMZFYFL4ZGD0D4HXZQP3BIGD5,complex_2_b,complex_2,complex,b,2,True,Rev,False,0.388,16,False
A2BA9Y6VGW6WS1:3GLB5JMZFYFL4ZGD0D4HXZQP3BIGD5,stopper_1_a,stopper_1,stopper,a,1,True,Rev,True,0.457,17,False
A2BA9Y6VGW6WS1:3GLB5JMZFYFL4ZGD0D4HXZQP3BIGD5,porous_5_a,porous_5,porous,a,5,False,None,False,0.148,18,False
A2BA9Y6VGW6WS1:3GLB5JMZFYFL4ZGD0D4HXZQP3BIGD5,complex_3_b,complex_3,complex,b,3,False,Fwd,False,1.058,19,False
A2BA9Y6VGW6WS1:3GLB5JMZFYFL4ZGD0D4HXZQP3BIGD5,porous_6_a,porous_6,porous,a,6,True,Fwd,True,0.174,20,False
A2BA9Y6VGW6WS1:3GLB5JMZFYFL4ZGD0D4HXZQP3BIGD5,stopper_5_a,stopper_5,stopper,a,5,False,Fwd,False,0.076,21,False
A2BA9Y6VGW6WS1:3GLB5JMZFYFL4ZGD0D4HXZQP3BIGD5,stopper_2_a,stopper_2,stopper,a,2,True,Rev,True,1.262,22,False
A2BA9Y6VGW6WS1:3GLB5JMZFYFL4ZGD0D4HXZQP3BIGD5,complex_5_b,complex_5,complex,b,5,False,None,False,0.273,23,False
A2BW6WD7LZ9EGV:3KGTPGBS6Y5H67JSNT9H5V0CFTXU21,size_5_c,size_5,size,c,5,True,Rev,True,0.828,0,False
A2BW6WD7LZ9EGV:3KGTPGBS6Y5H67JSNT9H5V0CFTXU21,porous_1_a,porous_1,porous,a,1,True,Rev,True,0.374,1,False
A2BW6WD7LZ9EGV:3KGTPGBS6Y5H67JSNT9H5V0CFTXU21,porous_3_a,porous_3,porous,a,3,False,Rev,False,0.479,2,False
A2BW6WD7LZ9EGV:3KGTPGBS6Y5H67JSNT9H5V0CFTXU21,porous_6_a,porous_6,porous,a,6,False,None,False,1.095,3,True
A2BW6WD7LZ9EGV:3KGTPGBS6Y5H67JSNT9H5V0CFTXU21,stopper_1_a,stopper_1,stopper,a,1,False,Fwd,False,0.615,4,False
A2BW6WD7LZ9EGV:3KGTPGBS6Y5H67JSNT9H5V0CFTXU21,complex_1_b,complex_1,complex,b,1,False,Rev,False,0.978,5,False
A2BW6WD7LZ9EGV:3KGTPGBS6Y5H67JSNT9H5V0CFTXU21,size_4_c,size_4,size,c,4,False,None,False,0.472,6,False
A2BW6WD7LZ9EGV:3KGTPGBS6Y5H67JSNT9H5V0CFTXU21,complex_5_b,complex_5,complex,b,5,True,None,True,0.496,7,False
A2BW6WD7LZ9EGV:3KGTPGBS6Y5H67JSNT9H5V0CFTXU21,complex_6_b,complex_6,complex,b,6,True,None,True,0.462,8,False
A2BW6WD7LZ9EGV:3KGTPGBS6Y5H67JSNT9H5V0CFTXU21,stopper_6_a,stopper_6,stopper,a,6,False,Fwd,False,0.382,9,False
A2BW6WD7LZ9EGV:3KGTPGBS6Y5H67JSNT9H5V0CFTXU21,stopper_5_a,stopper_5,stopper,a,5,True,Fwd,True,0.236,10,False
A2BW6WD7LZ9EGV:3KGTPGBS6Y5H67JSNT9H5V0CFTXU21,complex_2_b,complex_2,complex,b,2,False,Fwd,False,0.43,11,False
A2BW6WD7LZ9EGV:3KGTPGBS6Y5H67JSNT9H5V0CFTXU21,porous_2_a,porous_2,porous,a,2,True,Rev,True,0.316,12,True
A2BW6WD7LZ9EGV:3KGTPGBS6Y5H67JSNT9H5V0CFTXU21,stopper_4_a,stopper_4,stopper,a,4,True,None,True,0.861,13,False
A2BW6WD7LZ9EGV:3KGTPGBS6Y5H67JSNT9H5V0CFTXU21,size_6_c,size_6,size,c,6,False,Rev,False,0.355,14,False
A2BW6WD7LZ9EGV:3KGTPGBS6Y5H67JSNT9H5V0CFTXU21,size_3_c,size_3,size,c,3,True,Fwd,True,0.174,15,False
A2BW6WD7LZ9EGV:3KGTPGBS6Y5H67JSNT9H5V0CFTXU21,porous_5_a,porous_5,porous,a,5,True,None,True,0.109,16,False
A2BW6WD7LZ9EGV:3KGTPGBS6Y5H67JSNT9H5V0CFTXU21,complex_4_b,complex_4,complex,b,4,True,Rev,True,0.381,17,False
A2BW6WD7LZ9EGV:3KGTPGBS6Y5H67JSNT9H5V0CFTXU21,complex_3_b,complex_3,complex,b,3,True,Fwd,True,0.429,18,False
A2BW6WD7LZ9EGV:3KGTPGBS6Y5H67JSNT9H5V0CFTXU21,size_2_c,size_2,size,c,2,False,None,False,0.23,19,False
A2BW6WD7LZ9EGV:3KGTPGBS6Y5H67JSNT9H5V0CFTXU21,size_1_c,size_1,size,c,1,True,Fwd,True,0.557,20,False
A2BW6WD7LZ9EGV:3KGTPGBS6Y5H67JSNT9H5V0CFTXU21,porous_4_a,porous_4,porous,a,4,False,None,False,0.295,21,False
A2BW6WD7LZ9EGV:3KGTPGBS6Y5H67JSNT9H5V0CFTXU21,stopper_3_a,stopper_3,stopper,a,3,False,Rev,False,0.574,22,False
A2BW6WD7LZ9EGV:3KGTPGBS6Y5H67JSNT9H5V0CFTXU21,stopper_2_a,stopper_2,stopper,a,2,False,Fwd,False,0.383,23,False
A2CQP9DZSDUC5V:3ITXP059PX31XQPW59K9PB45W7YJSX,size_4_c,size_4,size,c,4,False,Fwd,True,0.083,0,False
A2CQP9DZSDUC5V:3ITXP059PX31XQPW59K9PB45W7YJSX,porous_3_a,porous_3,porous,a,3,False,None,False,1.424,1,False
A2CQP9DZSDUC5V:3ITXP059PX31XQPW59K9PB45W7YJSX,complex_3_b,complex_3,complex,b,3,True,Rev,False,0.525,2,False
A2CQP9DZSDUC5V:3ITXP059PX31XQPW59K9PB45W7YJSX,complex_6_b,complex_6,complex,b,6,True,Fwd,True,0.56,3,False
A2CQP9DZSDUC5V:3ITXP059PX31XQPW59K9PB45W7YJSX,stopper_2_a,stopper_2,stopper,a,2,False,Rev,False,0.392,4,False
A2CQP9DZSDUC5V:3ITXP059PX31XQPW59K9PB45W7YJSX,porous_5_a,porous_5,porous,a,5,True,Fwd,False,0.948,5,False
A2CQP9DZSDUC5V:3ITXP059PX31XQPW59K9PB45W7YJSX,stopper_3_a,stopper_3,stopper,a,3,False,None,False,0.834,6,False
A2CQP9DZSDUC5V:3ITXP059PX31XQPW59K9PB45W7YJSX,size_6_c,size_6,size,c,6,False,None,False,0.847,7,False
A2CQP9DZSDUC5V:3ITXP059PX31XQPW59K9PB45W7YJSX,porous_1_a,porous_1,porous,a,1,True,None,True,0.701,8,False
A2CQP9DZSDUC5V:3ITXP059PX31XQPW59K9PB45W7YJSX,size_3_c,size_3,size,c,3,True,Rev,True,1.013,9,False
A2CQP9DZSDUC5V:3ITXP059PX31XQPW59K9PB45W7YJSX,stopper_5_a,stopper_5,stopper,a,5,True,Rev,True,0.385,10,False
A2CQP9DZSDUC5V:3ITXP059PX31XQPW59K9PB45W7YJSX,complex_4_b,complex_4,complex,b,4,True,None,True,0.422,11,False
A2CQP9DZSDUC5V:3ITXP059PX31XQPW59K9PB45W7YJSX,porous_2_a,porous_2,porous,a,2,True,None,True,0.57,12,False
A2CQP9DZSDUC5V:3ITXP059PX31XQPW59K9PB45W7YJSX,size_5_c,size_5,size,c,5,True,None,True,0.414,13,False
A2CQP9DZSDUC5V:3ITXP059PX31XQPW59K9PB45W7YJSX,stopper_6_a,stopper_6,stopper,a,6,False,Rev,False,0.213,14,False
A2CQP9DZSDUC5V:3ITXP059PX31XQPW59K9PB45W7YJSX,stopper_4_a,stopper_4,stopper,a,4,True,Fwd,True,0.899,15,False
A2CQP9DZSDUC5V:3ITXP059PX31XQPW59K9PB45W7YJSX,porous_6_a,porous_6,porous,a,6,False,Fwd,False,0.114,16,False
A2CQP9DZSDUC5V:3ITXP059PX31XQPW59K9PB45W7YJSX,size_2_c,size_2,size,c,2,False,Fwd,False,0.602,17,False
A2CQP9DZSDUC5V:3ITXP059PX31XQPW59K9PB45W7YJSX,stopper_1_a,stopper_1,stopper,a,1,False,Rev,False,0.457,18,False
A2CQP9DZSDUC5V:3ITXP059PX31XQPW59K9PB45W7YJSX,porous_4_a,porous_4,porous,a,4,False,Fwd,False,0.181,19,False
A2CQP9DZSDUC5V:3ITXP059PX31XQPW59K9PB45W7YJSX,size_1_c,size_1,size,c,1,True,Rev,True,0.541,20,False
A2CQP9DZSDUC5V:3ITXP059PX31XQPW59K9PB45W7YJSX,complex_5_b,complex_5,complex,b,5,True,Fwd,True,0.821,21,True
A2CQP9DZSDUC5V:3ITXP059PX31XQPW59K9PB45W7YJSX,complex_2_b,complex_2,complex,b,2,False,Rev,False,0.694,22,False
A2CQP9DZSDUC5V:3ITXP059PX31XQPW59K9PB45W7YJSX,complex_1_b,complex_1,complex,b,1,False,None,False,1.33,23,False
A2LZ9KG42SZ3I0:39K0FND3AIZNY29NR6BAK32GEUCAMK,size_1_c,size_1,size,c,1,True,Rev,False,0.455,0,False
A2LZ9KG42SZ3I0:39K0FND3AIZNY29NR6BAK32GEUCAMK,stopper_4_a,stopper_4,stopper,a,4,True,Fwd,True,0.276,1,False
A2LZ9KG42SZ3I0:39K0FND3AIZNY29NR6BAK32GEUCAMK,size_3_c,size_3,size,c,3,True,Rev,True,0.357,2,False
A2LZ9KG42SZ3I0:39K0FND3AIZNY29NR6BAK32GEUCAMK,porous_6_a,porous_6,porous,a,6,False,Fwd,False,0.57,3,False
A2LZ9KG42SZ3I0:39K0FND3AIZNY29NR6BAK32GEUCAMK,stopper_2_a,stopper_2,stopper,a,2,False,Rev,False,0.532,4,False
A2LZ9KG42SZ3I0:39K0FND3AIZNY29NR6BAK32GEUCAMK,complex_4_b,complex_4,complex,b,4,True,None,True,0.723,5,False
A2LZ9KG42SZ3I0:39K0FND3AIZNY29NR6BAK32GEUCAMK,porous_2_a,porous_2,porous,a,2,True,None,True,0.492,6,False
A2LZ9KG42SZ3I0:39K0FND3AIZNY29NR6BAK32GEUCAMK,size_4_c,size_4,size,c,4,False,Fwd,,-1.0,7,False
A2LZ9KG42SZ3I0:39K0FND3AIZNY29NR6BAK32GEUCAMK,porous_4_a,porous_4,porous,a,4,False,Fwd,False,0.546,8,False
A2LZ9KG42SZ3I0:39K0FND3AIZNY29NR6BAK32GEUCAMK,complex_1_b,complex_1,complex,b,1,False,None,False,1.33,9,False
A2LZ9KG42SZ3I0:39K0FND3AIZNY29NR6BAK32GEUCAMK,size_5_c,size_5,size,c,5,True,None,True,0.395,10,False
A2LZ9KG42SZ3I0:39K0FND3AIZNY29NR6BAK32GEUCAMK,complex_6_b,complex_6,complex,b,6,True,Fwd,True,0.191,11,False
A2LZ9KG42SZ3I0:39K0FND3AIZNY29NR6BAK32GEUCAMK,stopper_3_a,stopper_3,stopper,a,3,False,None,False,0.594,12,False
A2LZ9KG42SZ3I0:39K0FND3AIZNY29NR6BAK32GEUCAMK,complex_5_b,complex_5,complex,b,5,True,Fwd,True,0.323,13,False
A2LZ9KG42SZ3I0:39K0FND3AIZNY29NR6BAK32GEUCAMK,porous_3_a,porous_3,porous,a,3,False,None,False,0.489,14,False
A2LZ9KG42SZ3I0:39K0FND3AIZNY29NR6BAK32GEUCAMK,porous_5_a,porous_5,porous,a,5,True,Fwd,True,0.365,15,False
A2LZ9KG42SZ3I0:39K0FND3AIZNY29NR6BAK32GEUCAMK,stopper_5_a,stopper_5,stopper,a,5,True,Rev,True,1.77,16,False
A2LZ9KG42SZ3I0:39K0FND3AIZNY29NR6BAK32GEUCAMK,porous_1_a,porous_1,porous,a,1,True,None,True,0.011,17,False
A2LZ9KG42SZ3I0:39K0FND3AIZNY29NR6BAK32GEUCAMK,size_2_c,size_2,size,c,2,False,Fwd,False,0.58,18,False
A2LZ9KG42SZ3I0:39K0FND3AIZNY29NR6BAK32GEUCAMK,complex_2_b,complex_2,complex,b,2,False,Rev,False,0.924,19,False
A2LZ9KG42SZ3I0:39K0FND3AIZNY29NR6BAK32GEUCAMK,complex_3_b,complex_3,complex,b,3,True,Rev,True,0.596,20,False
A2LZ9KG42SZ3I0:39K0FND3AIZNY29NR6BAK32GEUCAMK,size_6_c,size_6,size,c,6,False,None,False,0.363,21,False
A2LZ9KG42SZ3I0:39K0FND3AIZNY29NR6BAK32GEUCAMK,stopper_6_a,stopper_6,stopper,a,6,False,Rev,,-1.0,22,False
A2LZ9KG42SZ3I0:39K0FND3AIZNY29NR6BAK32GEUCAMK,stopper_1_a,stopper_1,stopper,a,1,False,Rev,False,0.522,23,False
A2NAKIXS3DVGAA:3T111IHZ5FA0QZCA48TRA7L6E03R9M,porous_5_a,porous_5,porous,a,5,True,None,True,0.787,0,False
A2NAKIXS3DVGAA:3T111IHZ5FA0QZCA48TRA7L6E03R9M,stopper_3_a,stopper_3,stopper,a,3,False,Rev,False,0.389,1,False
A2NAKIXS3DVGAA:3T111IHZ5FA0QZCA48TRA7L6E03R9M,size_4_c,size_4,size,c,4,False,None,False,0.473,2,False
A2NAKIXS3DVGAA:3T111IHZ5FA0QZCA48TRA7L6E03R9M,size_2_c,size_2,size,c,2,False,None,False,0.53,3,False
A2NAKIXS3DVGAA:3T111IHZ5FA0QZCA48TRA7L6E03R9M,complex_3_b,complex_3,complex,b,3,True,Fwd,True,0.467,4,False
A2NAKIXS3DVGAA:3T111IHZ5FA0QZCA48TRA7L6E03R9M,size_3_c,size_3,size,c,3,True,Fwd,True,0.617,5,False
A2NAKIXS3DVGAA:3T111IHZ5FA0QZCA48TRA7L6E03R9M,porous_2_a,porous_2,porous,a,2,True,Rev,True,0.538,6,False
A2NAKIXS3DVGAA:3T111IHZ5FA0QZCA48TRA7L6E03R9M,complex_5_b,complex_5,complex,b,5,True,None,True,0.575,7,True
A2NAKIXS3DVGAA:3T111IHZ5FA0QZCA48TRA7L6E03R9M,complex_4_b,complex_4,complex,b,4,True,Rev,True,0.419,8,False
A2NAKIXS3DVGAA:3T111IHZ5FA0QZCA48TRA7L6E03R9M,complex_2_b,complex_2,complex,b,2,False,Fwd,False,1.817,9,False
A2NAKIXS3DVGAA:3T111IHZ5FA0QZCA48TRA7L6E03R9M,size_5_c,size_5,size,c,5,True,Rev,True,0.236,10,False
A2NAKIXS3DVGAA:3T111IHZ5FA0QZCA48TRA7L6E03R9M,stopper_2_a,stopper_2,stopper,a,2,False,Fwd,False,0.241,11,False
A2NAKIXS3DVGAA:3T111IHZ5FA0QZCA48TRA7L6E03R9M,size_6_c,size_6,size,c,6,False,Rev,False,0.323,12,False
A2NAKIXS3DVGAA:3T111IHZ5FA0QZCA48TRA7L6E03R9M,size_1_c,size_1,size,c,1,True,Fwd,True,0.368,13,False
A2NAKIXS3DVGAA:3T111IHZ5FA0QZCA48TRA7L6E03R9M,porous_6_a,porous_6,porous,a,6,False,None,False,0.369,14,False
A2NAKIXS3DVGAA:3T111IHZ5FA0QZCA48TRA7L6E03R9M,porous_3_a,porous_3,porous,a,3,False,Rev,False,0.373,15,False
A2NAKIXS3DVGAA:3T111IHZ5FA0QZCA48TRA7L6E03R9M,stopper_5_a,stopper_5,stopper,a,5,True,Fwd,True,0.409,16,False
A2NAKIXS3DVGAA:3T111IHZ5FA0QZCA48TRA7L6E03R9M,complex_6_b,complex_6,complex,b,6,True,None,True,0.892,17,False
A2NAKIXS3DVGAA:3T111IHZ5FA0QZCA48TRA7L6E03R9M,porous_4_a,porous_4,porous,a,4,False,None,False,0.353,18,False
A2NAKIXS3DVGAA:3T111IHZ5FA0QZCA48TRA7L6E03R9M,stopper_6_a,stopper_6,stopper,a,6,False,Fwd,False,0.369,19,False
A2NAKIXS3DVGAA:3T111IHZ5FA0QZCA48TRA7L6E03R9M,porous_1_a,porous_1,porous,a,1,True,Rev,True,0.376,20,False
A2NAKIXS3DVGAA:3T111IHZ5FA0QZCA48TRA7L6E03R9M,stopper_1_a,stopper_1,stopper,a,1,False,Fwd,False,0.42,21,False
A2NAKIXS3DVGAA:3T111IHZ5FA0QZCA48TRA7L6E03R9M,complex_1_b,complex_1,complex,b,1,False,Rev,False,0.371,22,False
A2OVX9UW5WANQE:39OWYR0EPLBIOAF9LPLDSZ0EKK2YFA,stopper_3_a,stopper_3,stopper,a,3,False,None,True,0.675,0,False
A2OVX9UW5WANQE:39OWYR0EPLBIOAF9LPLDSZ0EKK2YFA,complex_4_b,complex_4,complex,b,4,True,None,False,0.603,1,False
A2OVX9UW5WANQE:39OWYR0EPLBIOAF9LPLDSZ0EKK2YFA,stopper_6_a,stopper_6,stopper,a,6,False,Rev,False,0.008,2,False
A2OVX9UW5WANQE:39OWYR0EPLBIOAF9LPLDSZ0EKK2YFA,porous_6_a,porous_6,porous,a,6,False,Fwd,True,0.369,3,False
A2OVX9UW5WANQE:39OWYR0EPLBIOAF9LPLDSZ0EKK2YFA,size_1_c,size_1,size,c,1,True,Rev,True,0.581,4,False
A2OVX9UW5WANQE:39OWYR0EPLBIOAF9LPLDSZ0EKK2YFA,size_3_c,size_3,size,c,3,True,Rev,False,0.149,5,False
A2OVX9UW5WANQE:39OWYR0EPLBIOAF9LPLDSZ0EKK2YFA,complex_5_b,complex_5,complex,b,5,True,Fwd,True,0.098,6,False
A2OVX9UW5WANQE:39OWYR0EPLBIOAF9LPLDSZ0EKK2YFA,porous_3_a,porous_3,porous,a,3,False,None,False,1.208,7,False
A2OVX9UW5WANQE:39OWYR0EPLBIOAF9LPLDSZ0EKK2YFA,size_4_c,size_4,size,c,4,False,Fwd,False,0.31,8,False
A2OVX9UW5WANQE:39OWYR0EPLBIOAF9LPLDSZ0EKK2YFA,complex_1_b,complex_1,complex,b,1,False,None,True,0.369,9,False
A2OVX9UW5WANQE:39OWYR0EPLBIOAF9LPLDSZ0EKK2YFA,complex_2_b,complex_2,complex,b,2,False,Rev,False,0.226,10,False
A2OVX9UW5WANQE:39OWYR0EPLBIOAF9LPLDSZ0EKK2YFA,porous_5_a,porous_5,porous,a,5,True,Fwd,True,0.336,11,False
A2OVX9UW5WANQE:39OWYR0EPLBIOAF9LPLDSZ0EKK2YFA,size_2_c,size_2,size,c,2,False,Fwd,False,0.856,12,False
A2OVX9UW5WANQE:39OWYR0EPLBIOAF9LPLDSZ0EKK2YFA,size_6_c,size_6,size,c,6,False,None,False,0.77,13,False
A2OVX9UW5WANQE:39OWYR0EPLBIOAF9LPLDSZ0EKK2YFA,porous_4_a,porous_4,porous,a,4,False,Fwd,False,0.452,14,False
A2OVX9UW5WANQE:39OWYR0EPLBIOAF9LPLDSZ0EKK2YFA,complex_3_b,complex_3,complex,b,3,True,Rev,True,0.504,15,False
A2OVX9UW5WANQE:39OWYR0EPLBIOAF9LPLDSZ0EKK2YFA,stopper_1_a,stopper_1,stopper,a,1,False,Rev,False,0.394,16,False
A2OVX9UW5WANQE:39OWYR0EPLBIOAF9LPLDSZ0EKK2YFA,porous_1_a,porous_1,porous,a,1,True,None,False,1.519,17,False
A2OVX9UW5WANQE:39OWYR0EPLBIOAF9LPLDSZ0EKK2YFA,stopper_4_a,stopper_4,stopper,a,4,True,Fwd,True,0.239,18,False
A2OVX9UW5WANQE:39OWYR0EPLBIOAF9LPLDSZ0EKK2YFA,stopper_5_a,stopper_5,stopper,a,5,True,Rev,True,0.974,19,False
A2OVX9UW5WANQE:39OWYR0EPLBIOAF9LPLDSZ0EKK2YFA,stopper_2_a,stopper_2,stopper,a,2,False,Rev,False,0.351,20,False
A2OVX9UW5WANQE:39OWYR0EPLBIOAF9LPLDSZ0EKK2YFA,complex_6_b,complex_6,complex,b,6,True,Fwd,False,0.364,21,False
A2OVX9UW5WANQE:39OWYR0EPLBIOAF9LPLDSZ0EKK2YFA,size_5_c,size_5,size,c,5,True,None,True,1.295,22,False
A2OVX9UW5WANQE:39OWYR0EPLBIOAF9LPLDSZ0EKK2YFA,porous_2_a,porous_2,porous,a,2,True,None,True,1.552,23,False
