WID,Condition,Trial,TrialBase,Class,ContainmentType,ContainmentLevel,TrialNum,MotionDirection,Response,RT,Goal,Switched,RawResponse,WasBad
A10249252O9I20MRSOBVF:36WLNQG780UU5OM2GMNN26HDE77EBG,7,stopper_5_c,stopper_5,contained,stopper,c,5,Fwd,G,0.806,G,True,R,False
A10249252O9I20MRSOBVF:36WLNQG780UU5OM2GMNN26HDE77EBG,7,regular_2,regular_2,regular,NA,NA,2,None,NA,-1,G,True,NA,False
A10249252O9I20MRSOBVF:36WLNQG780UU5OM2GMNN26HDE77EBG,7,complex_3_a,complex_3,contained,complex,a,3,Fwd,R,0.26,G,False,R,False
A10249252O9I20MRSOBVF:36WLNQG780UU5OM2GMNN26HDE77EBG,7,regular_14,regular_14,regular,NA,NA,14,None,G,0.447,G,False,G,False
A10249252O9I20MRSOBVF:36WLNQG780UU5OM2GMNN26HDE77EBG,7,size_5_c,size_5,contained,size,c,5,Rev,G,0.439,G,True,R,False
A10249252O9I20MRSOBVF:36WLNQG780UU5OM2GMNN26HDE77EBG,7,stopper_3_a,stopper_3,contained,stopper,a,3,Rev,G,1.933,G,False,G,False
A10249252O9I20MRSOBVF:36WLNQG780UU5OM2GMNN26HDE77EBG,7,regular_62,regular_62,regular,NA,NA,62,None,G,1.273,G,False,G,False
A10249252O9I20MRSOBVF:36WLNQG780UU5OM2GMNN26HDE77EBG,7,regular_47,regular_47,regular,NA,NA,47,None,G,0.278,R,True,R,False
A10249252O9I20MRSOBVF:36WLNQG780UU5OM2GMNN26HDE77EBG,7,regular_28,regular_28,regular,NA,NA,28,Fwd,R,0.193,R,False,R,False
A10249252O9I20MRSOBVF:36WLNQG780UU5OM2GMNN26HDE77EBG,7,complex_2_c,complex_2,contained,complex,c,2,Rev,G,0.351,G,False,G,False
A10249252O9I20MRSOBVF:36WLNQG780UU5OM2GMNN26HDE77EBG,7,complex_5_c,complex_5,contained,complex,c,5,None,G,0.451,G,False,G,False
A10249252O9I20MRSOBVF:36WLNQG780UU5OM2GMNN26HDE77EBG,7,porous_1_b,porous_1,contained,porous,b,1,Fwd,G,1.994,G,True,R,False
A10249252O9I20MRSOBVF:36WLNQG780UU5OM2GMNN26HDE77EBG,7,regular_66,regular_66,regular,NA,NA,66,Fwd,G,0.487,R,True,R,False
A10249252O9I20MRSOBVF:36WLNQG780UU5OM2GMNN26HDE77EBG,7,regular_52,regular_52,regular,NA,NA,52,Fwd,G,0.238,R,False,G,False
A10249252O9I20MRSOBVF:36WLNQG780UU5OM2GMNN26HDE77EBG,7,regular_35,regular_35,regular,NA,NA,35,None,G,0.708,G,True,R,False
A10249252O9I20MRSOBVF:36WLNQG780UU5OM2GMNN26HDE77EBG,7,stopper_2_c,stopper_2,contained,stopper,c,2,None,G,0.583,G,False,G,False
A10249252O9I20MRSOBVF:36WLNQG780UU5OM2GMNN26HDE77EBG,7,regular_61,regular_61,regular,NA,NA,61,Fwd,R,0.137,R,False,R,False
A10249252O9I20MRSOBVF:36WLNQG780UU5OM2GMNN26HDE77EBG,7,regular_45,regular_45,regular,NA,NA,45,Fwd,R,0.385,G,True,G,False
A10249252O9I20MRSOBVF:36WLNQG780UU5OM2GMNN26HDE77EBG,7,regular_71,regular_71,regular,NA,NA,71,None,R,0.828,R,True,G,False
A10249252O9I20MRSOBVF:36WLNQG780UU5OM2GMNN26HDE77EBG,7,regular_21,regular_21,regular,NA,NA,21,Fwd,G,0.188,R,False,G,False
A10249252O9I20MRSOBVF:36WLNQG780UU5OM2GMNN26HDE77EBG,7,regular_9,regular_9,regular,NA,NA,9,Fwd,R,0.332,R,True,G,False
A10249252O9I20MRSOBVF:36WLNQG780UU5OM2GMNN26HDE77EBG,7,regular_6,regular_6,regular,NA,NA,6,Fwd,G,0.018,G,False,G,False
A10249252O9I20MRSOBVF:36WLNQG780UU5OM2GMNN26HDE77EBG,7,regular_54,regular_54,regular,NA,NA,54,Fwd,R,0.001,R,False,R,False
A10249252O9I20MRSOBVF:36WLNQG780UU5OM2GMNN26HDE77EBG,7,regular_41,regular_41,regular,NA,NA,41,None,R,1.843,R,True,G,False
A10249252O9I20MRSOBVF:36WLNQG780UU5OM2GMNN26HDE77EBG,7,regular_20,regular_20,regular,NA,NA,20,None,G,0.804,G,True,R,False
A10249252O9I20MRSOBVF:36WLNQG780UU5OM2GMNN26HDE77EBG,7,regular_44,regular_44,regular,NA,NA,44,None,G,0.788,G,True,R,False
A10249252O9I20MRSOBVF:36WLNQG780UU5OM2GMNN26HDE77EBG,7,regular_51,regular_51,regular,NA,NA,51,Fwd,G,0.41,G,False,G,False
A10249252O9I20MRSOBVF:36WLNQG780UU5OM2GMNN26HDE77EBG,7,regular_23,regular_23,regular,NA,NA,23,None,G,0.851,R,False,G,False
A10249252O9I20MRSOBVF:36WLNQG780UU5OM2GMNN26HDE77EBG,7,regular_50,regular_50,regular,NA,NA,50,None,G,0.921,R,True,R,False
A10249252O9I20MRSOBVF:36WLNQG780UU5OM2GMNN26HDE77EBG,7,regular_69,regular_69,regular,NA,NA,69,Fwd,R,0.792,G,False,R,False
A10249252O9I20MRSOBVF:36WLNQG780UU5OM2GMNN26HDE77EBG,7,size_2_c,size_2,contained,size,c,2,Fwd,R,0.416,G,False,R,False
A10249252O9I20MRSOBVF:36WLNQG780UU5OM2GMNN26HDE77EBG,7,regular_12,regular_12,regular,NA,NA,12,Fwd,R,1.634,G,False,R,False
A10249252O9I20MRSOBVF:36WLNQG780UU5OM2GMNN26HDE77EBG,7,regular_30,regular_30,regular,NA,NA,30,Fwd,R,0.411,G,True,G,False
A10249252O9I20MRSOBVF:36WLNQG780UU5OM2GMNN26HDE77EBG,7,regular_92,regular_92,regular,NA,NA,92,None,G,0.813,R,True,R,False
A10249252O9I20MRSOBVF:36WLNQG780UU5OM2GMNN26HDE77EBG,7,regular_26,regular_26,regular,NA,NA,26,None,R,0.967,R,False,R,False
A10249252O9I20MRSOBVF:36WLNQG780UU5OM2GMNN26HDE77EBG,7,regular_42,regular_42,regular,NA,NA,42,Fwd,G,0.192,G,False,G,False
A10249252O9I20MRSOBVF:36WLNQG780UU5OM2GMNN26HDE77EBG,7,regular_67,regular_67,regular,NA,NA,67,Fwd,G,0.297,G,True,R,True
A10249252O9I20MRSOBVF:36WLNQG780UU5OM2GMNN26HDE77EBG,7,regular_1,regular_1,regular,NA,NA,1,Fwd,R,0.016,G,False,R,False
A10249252O9I20MRSOBVF:36WLNQG780UU5OM2GMNN26HDE77EBG,7,size_3_a,size_3,contained,size,a,3,None,G,1.462,G,True,R,False
A10249252O9I20MRSOBVF:36WLNQG780UU5OM2GMNN26HDE77EBG,7,regular_57,regular_57,regular,NA,NA,57,Fwd,R,0.222,G,False,R,False
A10249252O9I20MRSOBVF:36WLNQG780UU5OM2GMNN26HDE77EBG,7,regular_17,regular_17,regular,NA,NA,17,None,R,0.495,G,False,R,False
A10249252O9I20MRSOBVF:36WLNQG780UU5OM2GMNN26HDE77EBG,7,regular_79,regular_79,regular,NA,NA,79,Fwd,R,0.671,G,False,R,False
A10249252O9I20MRSOBVF:36WLNQG780UU5OM2GMNN26HDE77EBG,7,regular_64,regular_64,regular,NA,NA,64,Fwd,G,0.49,G,False,G,False
A10249252O9I20MRSOBVF:36WLNQG780UU5OM2GMNN26HDE77EBG,7,porous_6_a,porous_6,contained,porous,a,6,Rev,R,0.213,G,False,R,False
A10249252O9I20MRSOBVF:36WLNQG780UU5OM2GMNN26HDE77EBG,7,regular_49,regular_49,regular,NA,NA,49,Fwd,G,0.568,R,True,R,False
A10249252O9I20MRSOBVF:36WLNQG780UU5OM2GMNN26HDE77EBG,7,regular_78,regular_78,regular,NA,NA,78,Fwd,R,0.856,G,False,R,False
A10249252O9I20MRSOBVF:36WLNQG780UU5OM2GMNN26HDE77EBG,7,regular_32,regular_32,regular,NA,NA,32,None,R,0.459,R,False,R,False
A10249252O9I20MRSOBVF:36WLNQG780UU5OM2GMNN26HDE77EBG,7,regular_95,regular_95,regular,NA,NA,95,None,G,0.417,G,True,R,False
A10249252O9I20MRSOBVF:36WLNQG780UU5OM2GMNN26HDE77EBG,7,regular_22,regular_22,regular,NA,NA,22,Fwd,R,0.496,G,True,G,False
A10249252O9I20MRSOBVF:36WLNQG780UU5OM2GMNN26HDE77EBG,7,regular_31,regular_31,regular,NA,NA,31,Fwd,R,0.102,G,True,G,False
A10249252O9I20MRSOBVF:36WLNQG780UU5OM2GMNN26HDE77EBG,7,porous_2_c,porous_2,contained,porous,c,2,Rev,G,0.296,G,True,R,False
A10249252O9I20MRSOBVF:36WLNQG780UU5OM2GMNN26HDE77EBG,7,regular_5,regular_5,regular,NA,NA,5,None,R,0.547,R,False,R,False
A10249252O9I20MRSOBVF:36WLNQG780UU5OM2GMNN26HDE77EBG,7,complex_4_b,complex_4,contained,complex,b,4,Rev,G,0.166,G,False,G,False
A10249252O9I20MRSOBVF:36WLNQG780UU5OM2GMNN26HDE77EBG,7,regular_65,regular_65,regular,NA,NA,65,None,R,0.378,G,False,R,False
A10249252O9I20MRSOBVF:36WLNQG780UU5OM2GMNN26HDE77EBG,7,regular_84,regular_84,regular,NA,NA,84,Fwd,G,0.655,G,False,G,False
A10249252O9I20MRSOBVF:36WLNQG780UU5OM2GMNN26HDE77EBG,7,regular_16,regular_16,regular,NA,NA,16,Fwd,G,0.1,G,True,R,False
A10249252O9I20MRSOBVF:36WLNQG780UU5OM2GMNN26HDE77EBG,7,regular_25,regular_25,regular,NA,NA,25,Fwd,G,0.661,R,False,G,False
A10249252O9I20MRSOBVF:36WLNQG780UU5OM2GMNN26HDE77EBG,7,regular_74,regular_74,regular,NA,NA,74,None,R,0.381,G,True,G,False
A10249252O9I20MRSOBVF:36WLNQG780UU5OM2GMNN26HDE77EBG,7,regular_56,regular_56,regular,NA,NA,56,None,R,0.34,R,True,G,False
A10249252O9I20MRSOBVF:36WLNQG780UU5OM2GMNN26HDE77EBG,7,size_6_a,size_6,contained,size,a,6,Fwd,G,0.29,G,False,G,False
A10249252O9I20MRSOBVF:36WLNQG780UU5OM2GMNN26HDE77EBG,7,regular_3,regular_3,regular,NA,NA,3,Fwd,R,0.213,R,False,R,False
A10249252O9I20MRSOBVF:36WLNQG780UU5OM2GMNN26HDE77EBG,7,regular_33,regular_33,regular,NA,NA,33,Fwd,R,0.465,R,False,R,False
A10249252O9I20MRSOBVF:36WLNQG780UU5OM2GMNN26HDE77EBG,7,regular_39,regular_39,regular,NA,NA,39,Fwd,R,0.548,G,True,G,False
A10249252O9I20MRSOBVF:36WLNQG780UU5OM2GMNN26HDE77EBG,7,regular_89,regular_89,regular,NA,NA,89,None,R,0.5,R,False,R,False
A10249252O9I20MRSOBVF:36WLNQG780UU5OM2GMNN26HDE77EBG,7,regular_46,regular_46,regular,NA,NA,46,Fwd,R,0.563,G,True,G,False
A10249252O9I20MRSOBVF:36WLNQG780UU5OM2GMNN26HDE77EBG,7,porous_5_c,porous_5,contained,porous,c,5,None,R,0.764,G,True,G,False
A10249252O9I20MRSOBVF:36WLNQG780UU5OM2GMNN26HDE77EBG,7,regular_60,regular_60,regular,NA,NA,60,Fwd,G,0.338,R,True,R,False
A10249252O9I20MRSOBVF:36WLNQG780UU5OM2GMNN26HDE77EBG,7,regular_91,regular_91,regular,NA,NA,91,Fwd,G,0.17,R,True,R,False
A10249252O9I20MRSOBVF:36WLNQG780UU5OM2GMNN26HDE77EBG,7,regular_27,regular_27,regular,NA,NA,27,Fwd,G,0.606,G,True,R,False
A10249252O9I20MRSOBVF:36WLNQG780UU5OM2GMNN26HDE77EBG,7,regular_63,regular_63,regular,NA,NA,63,Fwd,G,1.351,R,True,R,False
A10249252O9I20MRSOBVF:36WLNQG780UU5OM2GMNN26HDE77EBG,7,regular_36,regular_36,regular,NA,NA,36,Fwd,R,1.759,G,True,G,False
A10249252O9I20MRSOBVF:36WLNQG780UU5OM2GMNN26HDE77EBG,7,regular_82,regular_82,regular,NA,NA,82,Fwd,R,0.242,R,True,G,False
A10249252O9I20MRSOBVF:36WLNQG780UU5OM2GMNN26HDE77EBG,7,regular_77,regular_77,regular,NA,NA,77,None,G,0.43,G,True,R,False
A10249252O9I20MRSOBVF:36WLNQG780UU5OM2GMNN26HDE77EBG,7,size_4_b,size_4,contained,size,b,4,Fwd,R,0.04,G,True,G,False
A10249252O9I20MRSOBVF:36WLNQG780UU5OM2GMNN26HDE77EBG,7,regular_86,regular_86,regular,NA,NA,86,None,G,0.964,G,True,R,False
A10249252O9I20MRSOBVF:36WLNQG780UU5OM2GMNN26HDE77EBG,7,regular_29,regular_29,regular,NA,NA,29,None,R,0.256,R,False,R,False
A10249252O9I20MRSOBVF:36WLNQG780UU5OM2GMNN26HDE77EBG,7,regular_68,regular_68,regular,NA,NA,68,None,R,0.646,R,True,G,False
A10249252O9I20MRSOBVF:36WLNQG780UU5OM2GMNN26HDE77EBG,7,regular_38,regular_38,regular,NA,NA,38,None,R,0.829,G,True,G,False
A10249252O9I20MRSOBVF:36WLNQG780UU5OM2GMNN26HDE77EBG,7,regular_88,regular_88,regular,NA,NA,88,Fwd,R,0.342,G,False,R,False
A10249252O9I20MRSOBVF:36WLNQG780UU5OM2GMNN26HDE77EBG,7,regular_55,regular_55,regular,NA,NA,55,Fwd,G,0.369,G,True,R,False
A10249252O9I20MRSOBVF:36WLNQG780UU5OM2GMNN26HDE77EBG,7,size_1_b,size_1,contained,size,b,1,None,G,0.306,G,True,R,False
A10249252O9I20MRSOBVF:36WLNQG780UU5OM2GMNN26HDE77EBG,7,regular_40,regular_40,regular,NA,NA,40,Fwd,R,0.212,R,False,R,False
A10249252O9I20MRSOBVF:36WLNQG780UU5OM2GMNN26HDE77EBG,7,regular_70,regular_70,regular,NA,NA,70,Fwd,R,0.372,G,False,R,False
A10249252O9I20MRSOBVF:36WLNQG780UU5OM2GMNN26HDE77EBG,7,stopper_6_a,stopper_6,contained,stopper,a,6,None,G,0.431,G,True,R,False
A10249252O9I20MRSOBVF:36WLNQG780UU5OM2GMNN26HDE77EBG,7,regular_37,regular_37,regular,NA,NA,37,Fwd,R,0.416,R,True,G,False
A10249252O9I20MRSOBVF:36WLNQG780UU5OM2GMNN26HDE77EBG,7,regular_8,regular_8,regular,NA,NA,8,None,R,0.233,R,False,R,False
A10249252O9I20MRSOBVF:36WLNQG780UU5OM2GMNN26HDE77EBG,7,regular_43,regular_43,regular,NA,NA,43,Fwd,G,0.189,R,True,R,False
A10249252O9I20MRSOBVF:36WLNQG780UU5OM2GMNN26HDE77EBG,7,regular_75,regular_75,regular,NA,NA,75,Fwd,G,0.809,R,True,R,False
A10249252O9I20MRSOBVF:36WLNQG780UU5OM2GMNN26HDE77EBG,7,regular_0,regular_0,regular,NA,NA,0,Fwd,R,0.131,R,False,R,False
A10249252O9I20MRSOBVF:36WLNQG780UU5OM2GMNN26HDE77EBG,7,regular_24,regular_24,regular,NA,NA,24,Fwd,G,0.691,G,True,R,False
A10249252O9I20MRSOBVF:36WLNQG780UU5OM2GMNN26HDE77EBG,7,regular_10,regular_10,regular,NA,NA,10,Fwd,R,0.382,R,True,G,False
A10249252O9I20MRSOBVF:36WLNQG780UU5OM2GMNN26HDE77EBG,7,regular_34,regular_34,regular,NA,NA,34,Fwd,G,0.438,G,False,G,False
A10249252O9I20MRSOBVF:36WLNQG780UU5OM2GMNN26HDE77EBG,7,regular_87,regular_87,regular,NA,NA,87,Fwd,R,0.479,G,False,R,False
A10249252O9I20MRSOBVF:36WLNQG780UU5OM2GMNN26HDE77EBG,7,regular_81,regular_81,regular,NA,NA,81,Fwd,G,0.409,G,False,G,False
A10249252O9I20MRSOBVF:36WLNQG780UU5OM2GMNN26HDE77EBG,7,complex_6_a,complex_6,contained,complex,a,6,Rev,G,0.615,G,False,G,False
A10249252O9I20MRSOBVF:36WLNQG780UU5OM2GMNN26HDE77EBG,7,regular_76,regular_76,regular,NA,NA,76,Fwd,R,0.451,R,False,R,False
A10249252O9I20MRSOBVF:36WLNQG780UU5OM2GMNN26HDE77EBG,7,regular_83,regular_83,regular,NA,NA,83,None,R,0.757,G,True,G,False
A10249252O9I20MRSOBVF:36WLNQG780UU5OM2GMNN26HDE77EBG,7,regular_18,regular_18,regular,NA,NA,18,Fwd,G,0.259,G,True,R,False
A10249252O9I20MRSOBVF:36WLNQG780UU5OM2GMNN26HDE77EBG,7,complex_1_b,complex_1,contained,complex,b,1,Fwd,G,0.44,G,True,R,False
A10249252O9I20MRSOBVF:36WLNQG780UU5OM2GMNN26HDE77EBG,7,regular_53,regular_53,regular,NA,NA,53,None,G,0.997,R,True,R,False
A10249252O9I20MRSOBVF:36WLNQG780UU5OM2GMNN26HDE77EBG,7,regular_7,regular_7,regular,NA,NA,7,Fwd,G,0.333,G,False,G,False
A10249252O9I20MRSOBVF:36WLNQG780UU5OM2GMNN26HDE77EBG,7,porous_4_b,porous_4,contained,porous,b,4,Rev,G,0.426,G,False,G,False
A10249252O9I20MRSOBVF:36WLNQG780UU5OM2GMNN26HDE77EBG,7,regular_80,regular_80,regular,NA,NA,80,None,G,0.345,R,False,G,False
A10249252O9I20MRSOBVF:36WLNQG780UU5OM2GMNN26HDE77EBG,7,regular_73,regular_73,regular,NA,NA,73,Fwd,R,0.335,G,True,G,False
A10249252O9I20MRSOBVF:36WLNQG780UU5OM2GMNN26HDE77EBG,7,regular_90,regular_90,regular,NA,NA,90,Fwd,R,0.227,G,False,R,False
A10249252O9I20MRSOBVF:36WLNQG780UU5OM2GMNN26HDE77EBG,7,stopper_1_b,stopper_1,contained,stopper,b,1,Rev,G,0.692,G,False,G,False
A10249252O9I20MRSOBVF:36WLNQG780UU5OM2GMNN26HDE77EBG,7,regular_94,regular_94,regular,NA,NA,94,Fwd,R,0.277,G,True,G,False
A10249252O9I20MRSOBVF:36WLNQG780UU5OM2GMNN26HDE77EBG,7,regular_11,regular_11,regular,NA,NA,11,None,R,0.537,R,True,G,False
A10249252O9I20MRSOBVF:36WLNQG780UU5OM2GMNN26HDE77EBG,7,regular_85,regular_85,regular,NA,NA,85,Fwd,G,0.287,G,True,R,False
A10249252O9I20MRSOBVF:36WLNQG780UU5OM2GMNN26HDE77EBG,7,porous_3_a,porous_3,contained,porous,a,3,Fwd,G,0.021,G,True,R,False
A10249252O9I20MRSOBVF:36WLNQG780UU5OM2GMNN26HDE77EBG,7,regular_59,regular_59,regular,NA,NA,59,None,R,0.474,R,True,G,False
A10249252O9I20MRSOBVF:36WLNQG780UU5OM2GMNN26HDE77EBG,7,regular_4,regular_4,regular,NA,NA,4,Fwd,R,0.121,R,False,R,False
A10249252O9I20MRSOBVF:36WLNQG780UU5OM2GMNN26HDE77EBG,7,regular_58,regular_58,regular,NA,NA,58,Fwd,G,0.483,G,False,G,False
A10249252O9I20MRSOBVF:36WLNQG780UU5OM2GMNN26HDE77EBG,7,regular_19,regular_19,regular,NA,NA,19,Fwd,R,0.262,G,False,R,False
A10249252O9I20MRSOBVF:36WLNQG780UU5OM2GMNN26HDE77EBG,7,regular_93,regular_93,regular,NA,NA,93,Fwd,G,0.343,G,True,R,False
A10249252O9I20MRSOBVF:36WLNQG780UU5OM2GMNN26HDE77EBG,7,regular_15,regular_15,regular,NA,NA,15,Fwd,R,0.064,G,True,G,False
A10249252O9I20MRSOBVF:36WLNQG780UU5OM2GMNN26HDE77EBG,7,stopper_4_b,stopper_4,contained,stopper,b,4,None,G,0.64,G,False,G,False
A10249252O9I20MRSOBVF:36WLNQG780UU5OM2GMNN26HDE77EBG,7,regular_48,regular_48,regular,NA,NA,48,Fwd,G,0.539,R,True,R,False
A10249252O9I20MRSOBVF:36WLNQG780UU5OM2GMNN26HDE77EBG,7,regular_72,regular_72,regular,NA,NA,72,Fwd,R,0.212,R,False,R,False
A10249252O9I20MRSOBVF:36WLNQG780UU5OM2GMNN26HDE77EBG,7,regular_13,regular_13,regular,NA,NA,13,Fwd,G,0.628,G,False,G,False
A110JYKWR9T6H8:39ZSFO5CA9GHC3H0UEF94CMT9M9UJ6,3,regular_85,regular_85,regular,NA,NA,85,Fwd,G,0.947,G,False,G,False
A110JYKWR9T6H8:39ZSFO5CA9GHC3H0UEF94CMT9M9UJ6,3,regular_52,regular_52,regular,NA,NA,52,Fwd,R,0.599,R,False,R,False
A110JYKWR9T6H8:39ZSFO5CA9GHC3H0UEF94CMT9M9UJ6,3,regular_57,regular_57,regular,NA,NA,57,None,G,1.533,G,False,G,False
A110JYKWR9T6H8:39ZSFO5CA9GHC3H0UEF94CMT9M9UJ6,3,regular_38,regular_38,regular,NA,NA,38,Fwd,G,1.183,G,True,R,False
A110JYKWR9T6H8:39ZSFO5CA9GHC3H0UEF94CMT9M9UJ6,3,regular_32,regular_32,regular,NA,NA,32,Fwd,G,0.632,R,False,G,False
A110JYKWR9T6H8:39ZSFO5CA9GHC3H0UEF94CMT9M9UJ6,3,regular_23,regular_23,regular,NA,NA,23,Fwd,R,0.611,R,False,R,False
A110JYKWR9T6H8:39ZSFO5CA9GHC3H0UEF94CMT9M9UJ6,3,regular_83,regular_83,regular,NA,NA,83,Fwd,R,0.835,G,True,G,False
A110JYKWR9T6H8:39ZSFO5CA9GHC3H0UEF94CMT9M9UJ6,3,regular_77,regular_77,regular,NA,NA,77,Fwd,G,0.52,G,False,G,False
A110JYKWR9T6H8:39ZSFO5CA9GHC3H0UEF94CMT9M9UJ6,3,regular_91,regular_91,regular,NA,NA,91,Fwd,G,0.126,R,False,G,False
A110JYKWR9T6H8:39ZSFO5CA9GHC3H0UEF94CMT9M9UJ6,3,regular_62,regular_62,regular,NA,NA,62,Fwd,G,0.339,G,False,G,False
A110JYKWR9T6H8:39ZSFO5CA9GHC3H0UEF94CMT9M9UJ6,3,regular_11,regular_11,regular,NA,NA,11,Fwd,R,0.565,R,False,R,False
A110JYKWR9T6H8:39ZSFO5CA9GHC3H0UEF94CMT9M9UJ6,3,regular_67,regular_67,regular,NA,NA,67,Fwd,G,0.227,G,False,G,False
A110JYKWR9T6H8:39ZSFO5CA9GHC3H0UEF94CMT9M9UJ6,3,regular_54,regular_54,regular,NA,NA,54,None,G,0.803,R,True,R,False
A110JYKWR9T6H8:39ZSFO5CA9GHC3H0UEF94CMT9M9UJ6,3,regular_18,regular_18,regular,NA,NA,18,None,G,0.498,G,True,R,False
A110JYKWR9T6H8:39ZSFO5CA9GHC3H0UEF94CMT9M9UJ6,3,regular_88,regular_88,regular,NA,NA,88,Fwd,R,0.273,G,True,G,False
A110JYKWR9T6H8:39ZSFO5CA9GHC3H0UEF94CMT9M9UJ6,3,regular_60,regular_60,regular,NA,NA,60,None,R,0.566,R,False,R,False
A110JYKWR9T6H8:39ZSFO5CA9GHC3H0UEF94CMT9M9UJ6,3,regular_89,regular_89,regular,NA,NA,89,Fwd,G,0.148,R,True,R,False
A110JYKWR9T6H8:39ZSFO5CA9GHC3H0UEF94CMT9M9UJ6,3,regular_94,regular_94,regular,NA,NA,94,Fwd,R,0.385,G,False,R,False
A110JYKWR9T6H8:39ZSFO5CA9GHC3H0UEF94CMT9M9UJ6,3,regular_86,regular_86,regular,NA,NA,86,Fwd,G,0.723,G,False,G,False
A110JYKWR9T6H8:39ZSFO5CA9GHC3H0UEF94CMT9M9UJ6,3,regular_30,regular_30,regular,NA,NA,30,None,R,0.587,G,False,R,False
A110JYKWR9T6H8:39ZSFO5CA9GHC3H0UEF94CMT9M9UJ6,3,regular_92,regular_92,regular,NA,NA,92,Fwd,G,1.388,R,False,G,False
A110JYKWR9T6H8:39ZSFO5CA9GHC3H0UEF94CMT9M9UJ6,3,regular_74,regular_74,regular,NA,NA,74,Fwd,G,1.083,G,False,G,False
A110JYKWR9T6H8:39ZSFO5CA9GHC3H0UEF94CMT9M9UJ6,3,regular_0,regular_0,regular,NA,NA,0,None,G,0.519,R,False,G,False
A110JYKWR9T6H8:39ZSFO5CA9GHC3H0UEF94CMT9M9UJ6,3,regular_48,regular_48,regular,NA,NA,48,None,R,0.509,R,False,R,False
A110JYKWR9T6H8:39ZSFO5CA9GHC3H0UEF94CMT9M9UJ6,3,regular_39,regular_39,regular,NA,NA,39,None,R,0.711,G,False,R,False
A110JYKWR9T6H8:39ZSFO5CA9GHC3H0UEF94CMT9M9UJ6,3,regular_22,regular_22,regular,NA,NA,22,Fwd,R,0.542,G,True,G,False
A110JYKWR9T6H8:39ZSFO5CA9GHC3H0UEF94CMT9M9UJ6,3,regular_70,regular_70,regular,NA,NA,70,Fwd,G,0.453,G,True,R,False
A110JYKWR9T6H8:39ZSFO5CA9GHC3H0UEF94CMT9M9UJ6,3,regular_63,regular_63,regular,NA,NA,63,None,R,0.656,R,True,G,False
A110JYKWR9T6H8:39ZSFO5CA9GHC3H0UEF94CMT9M9UJ6,3,size_3_c,size_3,contained,size,c,3,None,G,1.41,G,False,G,False
A110JYKWR9T6H8:39ZSFO5CA9GHC3H0UEF94CMT9M9UJ6,3,regular_40,regular_40,regular,NA,NA,40,Fwd,G,0.25,R,True,R,False
A110JYKWR9T6H8:39ZSFO5CA9GHC3H0UEF94CMT9M9UJ6,3,regular_27,regular_27,regular,NA,NA,27,None,R,0.756,G,False,R,False
A110JYKWR9T6H8:39ZSFO5CA9GHC3H0UEF94CMT9M9UJ6,3,stopper_1_a,stopper_1,contained,stopper,a,1,None,G,0.611,G,False,G,False
A110JYKWR9T6H8:39ZSFO5CA9GHC3H0UEF94CMT9M9UJ6,3,regular_1,regular_1,regular,NA,NA,1,Fwd,G,0.509,G,True,R,False
A110JYKWR9T6H8:39ZSFO5CA9GHC3H0UEF94CMT9M9UJ6,3,regular_51,regular_51,regular,NA,NA,51,None,G,0.465,G,False,G,False
A110JYKWR9T6H8:39ZSFO5CA9GHC3H0UEF94CMT9M9UJ6,3,regular_19,regular_19,regular,NA,NA,19,Fwd,R,0.746,G,False,R,False
A110JYKWR9T6H8:39ZSFO5CA9GHC3H0UEF94CMT9M9UJ6,3,complex_4_a,complex_4,contained,complex,a,4,None,G,0.509,G,False,G,False
A110JYKWR9T6H8:39ZSFO5CA9GHC3H0UEF94CMT9M9UJ6,3,regular_73,regular_73,regular,NA,NA,73,Fwd,G,1.162,G,False,G,False
A110JYKWR9T6H8:39ZSFO5CA9GHC3H0UEF94CMT9M9UJ6,3,regular_14,regular_14,regular,NA,NA,14,Fwd,G,0.442,G,True,R,False
A110JYKWR9T6H8:39ZSFO5CA9GHC3H0UEF94CMT9M9UJ6,3,regular_25,regular_25,regular,NA,NA,25,Fwd,G,0.34,R,False,G,False
A110JYKWR9T6H8:39ZSFO5CA9GHC3H0UEF94CMT9M9UJ6,3,regular_68,regular_68,regular,NA,NA,68,Fwd,R,0.588,R,True,G,False
A110JYKWR9T6H8:39ZSFO5CA9GHC3H0UEF94CMT9M9UJ6,3,porous_5_b,porous_5,contained,porous,b,5,Fwd,G,0.666,G,False,G,False
A110JYKWR9T6H8:39ZSFO5CA9GHC3H0UEF94CMT9M9UJ6,3,stopper_4_a,stopper_4,contained,stopper,a,4,Fwd,G,0.206,G,True,R,False
A110JYKWR9T6H8:39ZSFO5CA9GHC3H0UEF94CMT9M9UJ6,3,regular_95,regular_95,regular,NA,NA,95,Fwd,G,0.251,G,False,G,False
A110JYKWR9T6H8:39ZSFO5CA9GHC3H0UEF94CMT9M9UJ6,3,regular_3,regular_3,regular,NA,NA,3,None,R,0.722,R,False,R,False
A110JYKWR9T6H8:39ZSFO5CA9GHC3H0UEF94CMT9M9UJ6,3,complex_5_b,complex_5,contained,complex,b,5,Fwd,G,0.734,G,False,G,False
A110JYKWR9T6H8:39ZSFO5CA9GHC3H0UEF94CMT9M9UJ6,3,regular_58,regular_58,regular,NA,NA,58,Fwd,R,0.238,G,False,R,False
A110JYKWR9T6H8:39ZSFO5CA9GHC3H0UEF94CMT9M9UJ6,3,regular_45,regular_45,regular,NA,NA,45,None,R,1.015,G,True,G,False
A110JYKWR9T6H8:39ZSFO5CA9GHC3H0UEF94CMT9M9UJ6,3,porous_1_a,porous_1,contained,porous,a,1,Rev,G,0.711,G,True,R,False
A110JYKWR9T6H8:39ZSFO5CA9GHC3H0UEF94CMT9M9UJ6,3,regular_24,regular_24,regular,NA,NA,24,None,G,0.476,G,False,G,False
A110JYKWR9T6H8:39ZSFO5CA9GHC3H0UEF94CMT9M9UJ6,3,complex_3_c,complex_3,contained,complex,c,3,Fwd,G,0.791,G,False,G,False
A110JYKWR9T6H8:39ZSFO5CA9GHC3H0UEF94CMT9M9UJ6,3,regular_61,regular_61,regular,NA,NA,61,Fwd,R,0.126,R,True,G,False
A110JYKWR9T6H8:39ZSFO5CA9GHC3H0UEF94CMT9M9UJ6,3,regular_4,regular_4,regular,NA,NA,4,Fwd,R,0.094,R,True,G,False
A110JYKWR9T6H8:39ZSFO5CA9GHC3H0UEF94CMT9M9UJ6,3,size_2_b,size_2,contained,size,b,2,Rev,G,0.194,G,True,R,False
A110JYKWR9T6H8:39ZSFO5CA9GHC3H0UEF94CMT9M9UJ6,3,regular_80,regular_80,regular,NA,NA,80,Fwd,R,0.004,R,True,G,False
A110JYKWR9T6H8:39ZSFO5CA9GHC3H0UEF94CMT9M9UJ6,3,regular_28,regular_28,regular,NA,NA,28,Fwd,R,0.081,R,True,G,False
A110JYKWR9T6H8:39ZSFO5CA9GHC3H0UEF94CMT9M9UJ6,3,size_6_c,size_6,contained,size,c,6,Fwd,G,0.115,G,True,R,False
A110JYKWR9T6H8:39ZSFO5CA9GHC3H0UEF94CMT9M9UJ6,3,regular_20,regular_20,regular,NA,NA,20,Fwd,G,0.195,G,False,G,False
A110JYKWR9T6H8:39ZSFO5CA9GHC3H0UEF94CMT9M9UJ6,3,regular_59,regular_59,regular,NA,NA,59,Fwd,G,0.047,R,False,G,False
A110JYKWR9T6H8:39ZSFO5CA9GHC3H0UEF94CMT9M9UJ6,3,regular_33,regular_33,regular,NA,NA,33,None,R,0.733,R,True,G,False
A110JYKWR9T6H8:39ZSFO5CA9GHC3H0UEF94CMT9M9UJ6,3,regular_26,regular_26,regular,NA,NA,26,Fwd,R,0.07,R,True,G,False
A110JYKWR9T6H8:39ZSFO5CA9GHC3H0UEF94CMT9M9UJ6,3,regular_41,regular_41,regular,NA,NA,41,Fwd,R,0.273,R,True,G,False
A110JYKWR9T6H8:39ZSFO5CA9GHC3H0UEF94CMT9M9UJ6,3,regular_76,regular_76,regular,NA,NA,76,Fwd,R,0.003,R,True,G,False
A110JYKWR9T6H8:39ZSFO5CA9GHC3H0UEF94CMT9M9UJ6,3,regular_44,regular_44,regular,NA,NA,44,Fwd,R,0.059,G,True,G,False
A110JYKWR9T6H8:39ZSFO5CA9GHC3H0UEF94CMT9M9UJ6,3,regular_7,regular_7,regular,NA,NA,7,Fwd,G,0.059,G,True,R,False
A110JYKWR9T6H8:39ZSFO5CA9GHC3H0UEF94CMT9M9UJ6,3,regular_56,regular_56,regular,NA,NA,56,Fwd,G,0.139,R,True,R,False
A110JYKWR9T6H8:39ZSFO5CA9GHC3H0UEF94CMT9M9UJ6,3,regular_34,regular_34,regular,NA,NA,34,Fwd,R,0.183,G,True,G,False
A110JYKWR9T6H8:39ZSFO5CA9GHC3H0UEF94CMT9M9UJ6,3,regular_64,regular_64,regular,NA,NA,64,Fwd,G,0.138,G,False,G,False
A110JYKWR9T6H8:39ZSFO5CA9GHC3H0UEF94CMT9M9UJ6,3,regular_9,regular_9,regular,NA,NA,9,None,R,0.362,R,False,R,False
A110JYKWR9T6H8:39ZSFO5CA9GHC3H0UEF94CMT9M9UJ6,3,regular_81,regular_81,regular,NA,NA,81,None,G,0.464,G,False,G,False
A110JYKWR9T6H8:39ZSFO5CA9GHC3H0UEF94CMT9M9UJ6,3,regular_5,regular_5,regular,NA,NA,5,Fwd,G,0.046,R,False,G,False
A110JYKWR9T6H8:39ZSFO5CA9GHC3H0UEF94CMT9M9UJ6,3,regular_82,regular_82,regular,NA,NA,82,Fwd,R,0.667,R,True,G,False
A110JYKWR9T6H8:39ZSFO5CA9GHC3H0UEF94CMT9M9UJ6,3,regular_69,regular_69,regular,NA,NA,69,None,R,0.172,G,True,G,False
A110JYKWR9T6H8:39ZSFO5CA9GHC3H0UEF94CMT9M9UJ6,3,regular_42,regular_42,regular,NA,NA,42,None,G,0.285,G,False,G,False
A110JYKWR9T6H8:39ZSFO5CA9GHC3H0UEF94CMT9M9UJ6,3,regular_31,regular_31,regular,NA,NA,31,Fwd,R,0.059,G,True,G,False
A110JYKWR9T6H8:39ZSFO5CA9GHC3H0UEF94CMT9M9UJ6,3,porous_4_a,porous_4,contained,porous,a,4,None,G,0.429,G,True,R,False
A110JYKWR9T6H8:39ZSFO5CA9GHC3H0UEF94CMT9M9UJ6,3,regular_47,regular_47,regular,NA,NA,47,Fwd,G,0.058,R,False,G,False
A110JYKWR9T6H8:39ZSFO5CA9GHC3H0UEF94CMT9M9UJ6,3,regular_10,regular_10,regular,NA,NA,10,Fwd,R,0.656,R,False,R,False
A110JYKWR9T6H8:39ZSFO5CA9GHC3H0UEF94CMT9M9UJ6,3,regular_16,regular_16,regular,NA,NA,16,Fwd,G,0.712,G,True,R,False
A110JYKWR9T6H8:39ZSFO5CA9GHC3H0UEF94CMT9M9UJ6,3,regular_71,regular_71,regular,NA,NA,71,Fwd,G,0.182,R,False,G,False
A110JYKWR9T6H8:39ZSFO5CA9GHC3H0UEF94CMT9M9UJ6,3,regular_36,regular_36,regular,NA,NA,36,None,R,0.937,G,True,G,False
A110JYKWR9T6H8:39ZSFO5CA9GHC3H0UEF94CMT9M9UJ6,3,complex_1_a,complex_1,contained,complex,a,1,Rev,G,0.644,G,False,G,False
A110JYKWR9T6H8:39ZSFO5CA9GHC3H0UEF94CMT9M9UJ6,3,regular_72,regular_72,regular,NA,NA,72,None,R,0.835,R,True,G,False
A110JYKWR9T6H8:39ZSFO5CA9GHC3H0UEF94CMT9M9UJ6,3,regular_13,regular_13,regular,NA,NA,13,Fwd,R,0.138,G,True,G,False
A110JYKWR9T6H8:39ZSFO5CA9GHC3H0UEF94CMT9M9UJ6,3,regular_35,regular_35,regular,NA,NA,35,Fwd,R,0.937,G,False,R,False
A110JYKWR9T6H8:39ZSFO5CA9GHC3H0UEF94CMT9M9UJ6,3,regular_55,regular_55,regular,NA,NA,55,Fwd,G,1.048,G,True,R,False
A110JYKWR9T6H8:39ZSFO5CA9GHC3H0UEF94CMT9M9UJ6,3,regular_53,regular_53,regular,NA,NA,53,Fwd,R,0.542,R,True,G,False
A110JYKWR9T6H8:39ZSFO5CA9GHC3H0UEF94CMT9M9UJ6,3,regular_12,regular_12,regular,NA,NA,12,None,G,0.273,G,False,G,False
A110JYKWR9T6H8:39ZSFO5CA9GHC3H0UEF94CMT9M9UJ6,3,size_4_a,size_4,contained,size,a,4,Rev,G,0.62,G,True,R,False
A110JYKWR9T6H8:39ZSFO5CA9GHC3H0UEF94CMT9M9UJ6,3,regular_2,regular_2,regular,NA,NA,2,Fwd,G,0.206,G,False,G,False
A110JYKWR9T6H8:39ZSFO5CA9GHC3H0UEF94CMT9M9UJ6,3,porous_2_b,porous_2,contained,porous,b,2,None,G,0.576,G,False,G,False
A110JYKWR9T6H8:39ZSFO5CA9GHC3H0UEF94CMT9M9UJ6,3,stopper_3_c,stopper_3,contained,stopper,c,3,Rev,G,0.509,G,True,R,False
A110JYKWR9T6H8:39ZSFO5CA9GHC3H0UEF94CMT9M9UJ6,3,size_1_a,size_1,contained,size,a,1,Fwd,G,0.149,G,False,G,False
A110JYKWR9T6H8:39ZSFO5CA9GHC3H0UEF94CMT9M9UJ6,3,regular_17,regular_17,regular,NA,NA,17,Fwd,G,0.442,G,True,R,False
A110JYKWR9T6H8:39ZSFO5CA9GHC3H0UEF94CMT9M9UJ6,3,size_5_b,size_5,contained,size,b,5,None,G,0.633,G,True,R,False
A110JYKWR9T6H8:39ZSFO5CA9GHC3H0UEF94CMT9M9UJ6,3,stopper_5_b,stopper_5,contained,stopper,b,5,Rev,R,0.102,G,True,G,False
A110JYKWR9T6H8:39ZSFO5CA9GHC3H0UEF94CMT9M9UJ6,3,porous_6_c,porous_6,contained,porous,c,6,Rev,G,1.387,G,False,G,False
A110JYKWR9T6H8:39ZSFO5CA9GHC3H0UEF94CMT9M9UJ6,3,regular_8,regular_8,regular,NA,NA,8,Fwd,R,0.51,R,False,R,False
A110JYKWR9T6H8:39ZSFO5CA9GHC3H0UEF94CMT9M9UJ6,3,porous_3_c,porous_3,contained,porous,c,3,Fwd,G,0.429,G,True,R,False
A110JYKWR9T6H8:39ZSFO5CA9GHC3H0UEF94CMT9M9UJ6,3,regular_90,regular_90,regular,NA,NA,90,None,G,1.082,G,True,R,False
A110JYKWR9T6H8:39ZSFO5CA9GHC3H0UEF94CMT9M9UJ6,3,complex_2_b,complex_2,contained,complex,b,2,None,G,0.634,G,True,R,False
A110JYKWR9T6H8:39ZSFO5CA9GHC3H0UEF94CMT9M9UJ6,3,regular_66,regular_66,regular,NA,NA,66,None,G,0.385,R,False,G,False
A110JYKWR9T6H8:39ZSFO5CA9GHC3H0UEF94CMT9M9UJ6,3,regular_65,regular_65,regular,NA,NA,65,Fwd,R,0.801,G,True,G,False
A110JYKWR9T6H8:39ZSFO5CA9GHC3H0UEF94CMT9M9UJ6,3,stopper_6_c,stopper_6,contained,stopper,c,6,None,G,1.038,G,False,G,False
A110JYKWR9T6H8:39ZSFO5CA9GHC3H0UEF94CMT9M9UJ6,3,regular_84,regular_84,regular,NA,NA,84,None,G,1.048,G,True,R,False
A110JYKWR9T6H8:39ZSFO5CA9GHC3H0UEF94CMT9M9UJ6,3,regular_15,regular_15,regular,NA,NA,15,None,R,0.453,G,False,R,False
A110JYKWR9T6H8:39ZSFO5CA9GHC3H0UEF94CMT9M9UJ6,3,regular_75,regular_75,regular,NA,NA,75,None,R,0.565,R,True,G,False
A110JYKWR9T6H8:39ZSFO5CA9GHC3H0UEF94CMT9M9UJ6,3,regular_6,regular_6,regular,NA,NA,6,None,R,0.464,G,True,G,False
A110JYKWR9T6H8:39ZSFO5CA9GHC3H0UEF94CMT9M9UJ6,3,regular_49,regular_49,regular,NA,NA,49,Fwd,R,0.577,R,True,G,False
A110JYKWR9T6H8:39ZSFO5CA9GHC3H0UEF94CMT9M9UJ6,3,complex_6_c,complex_6,contained,complex,c,6,Rev,R,1.51,G,True,G,False
A110JYKWR9T6H8:39ZSFO5CA9GHC3H0UEF94CMT9M9UJ6,3,regular_43,regular_43,regular,NA,NA,43,Fwd,G,0.576,R,True,R,False
A110JYKWR9T6H8:39ZSFO5CA9GHC3H0UEF94CMT9M9UJ6,3,stopper_2_b,stopper_2,contained,stopper,b,2,Fwd,G,0.496,G,True,R,False
A110JYKWR9T6H8:39ZSFO5CA9GHC3H0UEF94CMT9M9UJ6,3,regular_37,regular_37,regular,NA,NA,37,Fwd,R,0.42,R,False,R,False
A110JYKWR9T6H8:39ZSFO5CA9GHC3H0UEF94CMT9M9UJ6,3,regular_46,regular_46,regular,NA,NA,46,Fwd,R,0.598,G,True,G,False
A110JYKWR9T6H8:39ZSFO5CA9GHC3H0UEF94CMT9M9UJ6,3,regular_29,regular_29,regular,NA,NA,29,Fwd,R,0.723,R,True,G,False
A110JYKWR9T6H8:39ZSFO5CA9GHC3H0UEF94CMT9M9UJ6,3,regular_78,regular_78,regular,NA,NA,78,None,G,0.757,G,True,R,False
A110JYKWR9T6H8:39ZSFO5CA9GHC3H0UEF94CMT9M9UJ6,3,regular_79,regular_79,regular,NA,NA,79,Fwd,G,0.047,G,False,G,False
A110JYKWR9T6H8:39ZSFO5CA9GHC3H0UEF94CMT9M9UJ6,3,regular_87,regular_87,regular,NA,NA,87,None,G,0.654,G,True,R,False
A110JYKWR9T6H8:39ZSFO5CA9GHC3H0UEF94CMT9M9UJ6,3,regular_50,regular_50,regular,NA,NA,50,Fwd,R,0.598,R,False,R,False
A110JYKWR9T6H8:39ZSFO5CA9GHC3H0UEF94CMT9M9UJ6,3,regular_93,regular_93,regular,NA,NA,93,None,G,0.521,G,False,G,False
A110JYKWR9T6H8:39ZSFO5CA9GHC3H0UEF94CMT9M9UJ6,3,regular_21,regular_21,regular,NA,NA,21,None,R,0.689,R,False,R,False
A11O504U2EJUGU:3NPFYT4IZDOZ25LURD5TR6THAQAGX8,8,stopper_3_b,stopper_3,contained,stopper,b,3,None,G,1.434,G,True,R,False
A11O504U2EJUGU:3NPFYT4IZDOZ25LURD5TR6THAQAGX8,8,regular_83,regular_83,regular,NA,NA,83,Fwd,G,0.245,G,True,R,False
A11O504U2EJUGU:3NPFYT4IZDOZ25LURD5TR6THAQAGX8,8,regular_57,regular_57,regular,NA,NA,57,Fwd,R,0.542,G,False,R,False
A11O504U2EJUGU:3NPFYT4IZDOZ25LURD5TR6THAQAGX8,8,regular_71,regular_71,regular,NA,NA,71,Fwd,G,0.795,R,False,G,False
A11O504U2EJUGU:3NPFYT4IZDOZ25LURD5TR6THAQAGX8,8,complex_1_c,complex_1,contained,complex,c,1,Rev,R,0.724,G,True,G,False
A11O504U2EJUGU:3NPFYT4IZDOZ25LURD5TR6THAQAGX8,8,regular_68,regular_68,regular,NA,NA,68,Fwd,R,0.925,R,True,G,False
A11O504U2EJUGU:3NPFYT4IZDOZ25LURD5TR6THAQAGX8,8,regular_19,regular_19,regular,NA,NA,19,None,G,0.844,G,False,G,False
A11O504U2EJUGU:3NPFYT4IZDOZ25LURD5TR6THAQAGX8,8,regular_46,regular_46,regular,NA,NA,46,None,R,0.491,G,True,G,False
A11O504U2EJUGU:3NPFYT4IZDOZ25LURD5TR6THAQAGX8,8,regular_77,regular_77,regular,NA,NA,77,Fwd,R,0.551,G,False,R,False
A11O504U2EJUGU:3NPFYT4IZDOZ25LURD5TR6THAQAGX8,8,regular_85,regular_85,regular,NA,NA,85,None,R,0.541,G,False,R,False
A11O504U2EJUGU:3NPFYT4IZDOZ25LURD5TR6THAQAGX8,8,regular_51,regular_51,regular,NA,NA,51,Fwd,R,0.351,G,False,R,False
A11O504U2EJUGU:3NPFYT4IZDOZ25LURD5TR6THAQAGX8,8,regular_1,regular_1,regular,NA,NA,1,None,G,0.474,G,False,G,False
A11O504U2EJUGU:3NPFYT4IZDOZ25LURD5TR6THAQAGX8,8,regular_56,regular_56,regular,NA,NA,56,Fwd,R,0.275,R,True,G,False
A11O504U2EJUGU:3NPFYT4IZDOZ25LURD5TR6THAQAGX8,8,porous_6_b,porous_6,contained,porous,b,6,None,G,1.128,G,False,G,False
A11O504U2EJUGU:3NPFYT4IZDOZ25LURD5TR6THAQAGX8,8,regular_7,regular_7,regular,NA,NA,7,None,G,0.835,G,False,G,False
A11O504U2EJUGU:3NPFYT4IZDOZ25LURD5TR6THAQAGX8,8,porous_4_c,porous_4,contained,porous,c,4,None,G,1.131,G,True,R,False
A11O504U2EJUGU:3NPFYT4IZDOZ25LURD5TR6THAQAGX8,8,regular_81,regular_81,regular,NA,NA,81,Fwd,R,0.233,G,False,R,False
A11O504U2EJUGU:3NPFYT4IZDOZ25LURD5TR6THAQAGX8,8,complex_6_b,complex_6,contained,complex,b,6,None,G,0.302,G,False,G,False
A11O504U2EJUGU:3NPFYT4IZDOZ25LURD5TR6THAQAGX8,8,regular_2,regular_2,regular,NA,NA,2,Fwd,G,0.354,G,False,G,False
A11O504U2EJUGU:3NPFYT4IZDOZ25LURD5TR6THAQAGX8,8,complex_3_b,complex_3,contained,complex,b,3,Rev,R,1.057,G,False,R,False
A11O504U2EJUGU:3NPFYT4IZDOZ25LURD5TR6THAQAGX8,8,size_1_c,size_1,contained,size,c,1,Fwd,G,0.303,G,False,G,False
A11O504U2EJUGU:3NPFYT4IZDOZ25LURD5TR6THAQAGX8,8,regular_90,regular_90,regular,NA,NA,90,Fwd,G,0.569,G,False,G,False
A11O504U2EJUGU:3NPFYT4IZDOZ25LURD5TR6THAQAGX8,8,regular_87,regular_87,regular,NA,NA,87,Fwd,G,0.308,G,False,G,False
A11O504U2EJUGU:3NPFYT4IZDOZ25LURD5TR6THAQAGX8,8,regular_50,regular_50,regular,NA,NA,50,Fwd,R,0.542,R,False,R,False
A11O504U2EJUGU:3NPFYT4IZDOZ25LURD5TR6THAQAGX8,8,regular_3,regular_3,regular,NA,NA,3,Fwd,R,0.264,R,False,R,False
A11O504U2EJUGU:3NPFYT4IZDOZ25LURD5TR6THAQAGX8,8,regular_30,regular_30,regular,NA,NA,30,Fwd,G,0.475,G,False,G,False
A11O504U2EJUGU:3NPFYT4IZDOZ25LURD5TR6THAQAGX8,8,size_3_b,size_3,contained,size,b,3,Fwd,G,0.152,G,True,R,False
A11O504U2EJUGU:3NPFYT4IZDOZ25LURD5TR6THAQAGX8,8,complex_5_a,complex_5,contained,complex,a,5,Rev,G,0.3,G,True,R,False
A11O504U2EJUGU:3NPFYT4IZDOZ25LURD5TR6THAQAGX8,8,regular_84,regular_84,regular,NA,NA,84,Fwd,R,0.292,G,False,R,False
A11O504U2EJUGU:3NPFYT4IZDOZ25LURD5TR6THAQAGX8,8,regular_0,regular_0,regular,NA,NA,0,Fwd,R,0.275,R,False,R,False
A11O504U2EJUGU:3NPFYT4IZDOZ25LURD5TR6THAQAGX8,8,regular_65,regular_65,regular,NA,NA,65,Fwd,R,0.867,G,True,G,False
A11O504U2EJUGU:3NPFYT4IZDOZ25LURD5TR6THAQAGX8,8,regular_23,regular_23,regular,NA,NA,23,Fwd,R,0.736,R,True,G,False
A11O504U2EJUGU:3NPFYT4IZDOZ25LURD5TR6THAQAGX8,8,regular_42,regular_42,regular,NA,NA,42,Fwd,G,0.276,G,False,G,False
A11O504U2EJUGU:3NPFYT4IZDOZ25LURD5TR6THAQAGX8,8,regular_66,regular_66,regular,NA,NA,66,Fwd,R,0.532,R,False,R,False
A11O504U2EJUGU:3NPFYT4IZDOZ25LURD5TR6THAQAGX8,8,regular_38,regular_38,regular,NA,NA,38,Fwd,G,0.787,G,True,R,False
A11O504U2EJUGU:3NPFYT4IZDOZ25LURD5TR6THAQAGX8,8,regular_26,regular_26,regular,NA,NA,26,Fwd,R,0.432,R,False,R,False
A11O504U2EJUGU:3NPFYT4IZDOZ25LURD5TR6THAQAGX8,8,regular_25,regular_25,regular,NA,NA,25,None,R,0.22,R,False,R,False
A11O504U2EJUGU:3NPFYT4IZDOZ25LURD5TR6THAQAGX8,8,regular_72,regular_72,regular,NA,NA,72,Fwd,R,0.44,R,True,G,False
A11O504U2EJUGU:3NPFYT4IZDOZ25LURD5TR6THAQAGX8,8,regular_40,regular_40,regular,NA,NA,40,None,G,0.573,R,False,G,False
A11O504U2EJUGU:3NPFYT4IZDOZ25LURD5TR6THAQAGX8,8,regular_44,regular_44,regular,NA,NA,44,Fwd,G,0.424,G,True,R,False
A11O504U2EJUGU:3NPFYT4IZDOZ25LURD5TR6THAQAGX8,8,regular_62,regular_62,regular,NA,NA,62,Fwd,G,0.518,G,True,R,False
A11O504U2EJUGU:3NPFYT4IZDOZ25LURD5TR6THAQAGX8,8,regular_28,regular_28,regular,NA,NA,28,None,R,0.234,R,True,G,False
A11O504U2EJUGU:3NPFYT4IZDOZ25LURD5TR6THAQAGX8,8,regular_15,regular_15,regular,NA,NA,15,Fwd,G,0.19,G,False,G,False
A11O504U2EJUGU:3NPFYT4IZDOZ25LURD5TR6THAQAGX8,8,regular_39,regular_39,regular,NA,NA,39,Fwd,G,0.166,G,False,G,False
A11O504U2EJUGU:3NPFYT4IZDOZ25LURD5TR6THAQAGX8,8,regular_58,regular_58,regular,NA,NA,58,None,G,1.084,G,False,G,False
A11O504U2EJUGU:3NPFYT4IZDOZ25LURD5TR6THAQAGX8,8,regular_76,regular_76,regular,NA,NA,76,None,R,0.446,R,False,R,False
A11O504U2EJUGU:3NPFYT4IZDOZ25LURD5TR6THAQAGX8,8,regular_35,regular_35,regular,NA,NA,35,Fwd,R,0.09,G,False,R,False
A11O504U2EJUGU:3NPFYT4IZDOZ25LURD5TR6THAQAGX8,8,regular_20,regular_20,regular,NA,NA,20,Fwd,R,0.122,G,False,R,False
A11O504U2EJUGU:3NPFYT4IZDOZ25LURD5TR6THAQAGX8,8,regular_21,regular_21,regular,NA,NA,21,Fwd,R,0.487,R,True,G,False
A11O504U2EJUGU:3NPFYT4IZDOZ25LURD5TR6THAQAGX8,8,regular_18,regular_18,regular,NA,NA,18,Fwd,G,0.106,G,False,G,False
A11O504U2EJUGU:3NPFYT4IZDOZ25LURD5TR6THAQAGX8,8,regular_61,regular_61,regular,NA,NA,61,None,G,0.284,R,False,G,False
A11O504U2EJUGU:3NPFYT4IZDOZ25LURD5TR6THAQAGX8,8,regular_95,regular_95,regular,NA,NA,95,Fwd,R,0.106,G,False,R,False
A11O504U2EJUGU:3NPFYT4IZDOZ25LURD5TR6THAQAGX8,8,size_2_a,size_2,contained,size,a,2,None,G,0.852,G,False,G,False
A11O504U2EJUGU:3NPFYT4IZDOZ25LURD5TR6THAQAGX8,8,regular_78,regular_78,regular,NA,NA,78,Fwd,R,0.077,G,True,G,False
A11O504U2EJUGU:3NPFYT4IZDOZ25LURD5TR6THAQAGX8,8,regular_92,regular_92,regular,NA,NA,92,Fwd,R,0.685,R,False,R,False
A11O504U2EJUGU:3NPFYT4IZDOZ25LURD5TR6THAQAGX8,8,regular_37,regular_37,regular,NA,NA,37,None,R,0.652,R,True,G,False
A11O504U2EJUGU:3NPFYT4IZDOZ25LURD5TR6THAQAGX8,8,regular_59,regular_59,regular,NA,NA,59,Fwd,G,0.325,R,False,G,False
A11O504U2EJUGU:3NPFYT4IZDOZ25LURD5TR6THAQAGX8,8,regular_11,regular_11,regular,NA,NA,11,Fwd,R,0.195,R,True,G,False
A11O504U2EJUGU:3NPFYT4IZDOZ25LURD5TR6THAQAGX8,8,regular_55,regular_55,regular,NA,NA,55,None,G,0.292,G,False,G,False
A11O504U2EJUGU:3NPFYT4IZDOZ25LURD5TR6THAQAGX8,8,regular_14,regular_14,regular,NA,NA,14,Fwd,R,0.076,G,True,G,False
A11O504U2EJUGU:3NPFYT4IZDOZ25LURD5TR6THAQAGX8,8,regular_27,regular_27,regular,NA,NA,27,Fwd,G,0.234,G,True,R,False
A11O504U2EJUGU:3NPFYT4IZDOZ25LURD5TR6THAQAGX8,8,regular_70,regular_70,regular,NA,NA,70,None,G,0.545,G,True,R,False
A11O504U2EJUGU:3NPFYT4IZDOZ25LURD5TR6THAQAGX8,8,regular_54,regular_54,regular,NA,NA,54,Fwd,R,0.129,R,False,R,False
A11O504U2EJUGU:3NPFYT4IZDOZ25LURD5TR6THAQAGX8,8,regular_86,regular_86,regular,NA,NA,86,Fwd,G,0.373,G,True,R,False
A11O504U2EJUGU:3NPFYT4IZDOZ25LURD5TR6THAQAGX8,8,regular_4,regular_4,regular,NA,NA,4,None,R,0.201,R,False,R,False
A11O504U2EJUGU:3NPFYT4IZDOZ25LURD5TR6THAQAGX8,8,regular_47,regular_47,regular,NA,NA,47,Fwd,R,0.005,R,False,R,False
A11O504U2EJUGU:3NPFYT4IZDOZ25LURD5TR6THAQAGX8,8,regular_88,regular_88,regular,NA,NA,88,None,G,0.894,G,False,G,False
A11O504U2EJUGU:3NPFYT4IZDOZ25LURD5TR6THAQAGX8,8,regular_10,regular_10,regular,NA,NA,10,None,G,0.183,R,True,R,False
A11O504U2EJUGU:3NPFYT4IZDOZ25LURD5TR6THAQAGX8,8,size_6_b,size_6,contained,size,b,6,Rev,G,0.136,G,False,G,False
A11O504U2EJUGU:3NPFYT4IZDOZ25LURD5TR6THAQAGX8,8,regular_63,regular_63,regular,NA,NA,63,Fwd,G,0.133,R,False,G,False
A11O504U2EJUGU:3NPFYT4IZDOZ25LURD5TR6THAQAGX8,8,regular_89,regular_89,regular,NA,NA,89,Fwd,G,1.036,R,False,G,False
A11O504U2EJUGU:3NPFYT4IZDOZ25LURD5TR6THAQAGX8,8,regular_93,regular_93,regular,NA,NA,93,Fwd,R,0.084,G,False,R,False
A11O504U2EJUGU:3NPFYT4IZDOZ25LURD5TR6THAQAGX8,8,porous_5_a,porous_5,contained,porous,a,5,Rev,G,0.406,G,True,R,False
A11O504U2EJUGU:3NPFYT4IZDOZ25LURD5TR6THAQAGX8,8,regular_91,regular_91,regular,NA,NA,91,None,G,0.132,R,True,R,False
A11O504U2EJUGU:3NPFYT4IZDOZ25LURD5TR6THAQAGX8,8,regular_64,regular_64,regular,NA,NA,64,None,R,0.352,G,True,G,False
A11O504U2EJUGU:3NPFYT4IZDOZ25LURD5TR6THAQAGX8,8,regular_79,regular_79,regular,NA,NA,79,None,R,0.1,G,True,G,False
A11O504U2EJUGU:3NPFYT4IZDOZ25LURD5TR6THAQAGX8,8,regular_33,regular_33,regular,NA,NA,33,Fwd,R,0.061,R,False,R,False
A11O504U2EJUGU:3NPFYT4IZDOZ25LURD5TR6THAQAGX8,8,regular_29,regular_29,regular,NA,NA,29,Fwd,G,0.014,R,True,R,False
A11O504U2EJUGU:3NPFYT4IZDOZ25LURD5TR6THAQAGX8,8,regular_69,regular_69,regular,NA,NA,69,Fwd,G,0.2,G,True,R,False
A11O504U2EJUGU:3NPFYT4IZDOZ25LURD5TR6THAQAGX8,8,regular_12,regular_12,regular,NA,NA,12,Fwd,R,0.606,G,False,R,False
A11O504U2EJUGU:3NPFYT4IZDOZ25LURD5TR6THAQAGX8,8,regular_48,regular_48,regular,NA,NA,48,Fwd,R,0.8,R,True,G,False
A11O504U2EJUGU:3NPFYT4IZDOZ25LURD5TR6THAQAGX8,8,regular_52,regular_52,regular,NA,NA,52,None,G,0.529,R,True,R,False
A11O504U2EJUGU:3NPFYT4IZDOZ25LURD5TR6THAQAGX8,8,regular_6,regular_6,regular,NA,NA,6,Fwd,R,0.084,G,True,G,False
A11O504U2EJUGU:3NPFYT4IZDOZ25LURD5TR6THAQAGX8,8,regular_60,regular_60,regular,NA,NA,60,Fwd,R,0.152,R,True,G,False
A11O504U2EJUGU:3NPFYT4IZDOZ25LURD5TR6THAQAGX8,8,regular_41,regular_41,regular,NA,NA,41,Fwd,G,0.041,R,False,G,False
A11O504U2EJUGU:3NPFYT4IZDOZ25LURD5TR6THAQAGX8,8,regular_5,regular_5,regular,NA,NA,5,Fwd,R,0.167,R,True,G,False
A11O504U2EJUGU:3NPFYT4IZDOZ25LURD5TR6THAQAGX8,8,regular_73,regular_73,regular,NA,NA,73,None,G,0.462,G,False,G,False
A11O504U2EJUGU:3NPFYT4IZDOZ25LURD5TR6THAQAGX8,8,regular_53,regular_53,regular,NA,NA,53,Fwd,R,0.919,R,True,G,False
A11O504U2EJUGU:3NPFYT4IZDOZ25LURD5TR6THAQAGX8,8,stopper_4_c,stopper_4,contained,stopper,c,4,Fwd,R,0.066,G,True,G,False
A11O504U2EJUGU:3NPFYT4IZDOZ25LURD5TR6THAQAGX8,8,regular_9,regular_9,regular,NA,NA,9,Fwd,G,0.034,R,False,G,False
A11O504U2EJUGU:3NPFYT4IZDOZ25LURD5TR6THAQAGX8,8,regular_22,regular_22,regular,NA,NA,22,None,G,0,G,True,R,False
A11O504U2EJUGU:3NPFYT4IZDOZ25LURD5TR6THAQAGX8,8,regular_36,regular_36,regular,NA,NA,36,Fwd,R,0.012,G,True,G,False
A11O504U2EJUGU:3NPFYT4IZDOZ25LURD5TR6THAQAGX8,8,complex_4_c,complex_4,contained,complex,c,4,None,R,0.451,G,False,R,False
A11O504U2EJUGU:3NPFYT4IZDOZ25LURD5TR6THAQAGX8,8,size_5_a,size_5,contained,size,a,5,Fwd,R,0.04,G,False,R,False
A11O504U2EJUGU:3NPFYT4IZDOZ25LURD5TR6THAQAGX8,8,regular_80,regular_80,regular,NA,NA,80,Fwd,G,0.093,R,True,R,False
A11O504U2EJUGU:3NPFYT4IZDOZ25LURD5TR6THAQAGX8,8,regular_45,regular_45,regular,NA,NA,45,Fwd,G,0.623,G,False,G,False
A11O504U2EJUGU:3NPFYT4IZDOZ25LURD5TR6THAQAGX8,8,regular_31,regular_31,regular,NA,NA,31,None,R,0.793,G,False,R,False
A11O504U2EJUGU:3NPFYT4IZDOZ25LURD5TR6THAQAGX8,8,porous_3_b,porous_3,contained,porous,b,3,Rev,R,0.03,G,True,G,False
A11O504U2EJUGU:3NPFYT4IZDOZ25LURD5TR6THAQAGX8,8,stopper_2_a,stopper_2,contained,stopper,a,2,Rev,R,0.226,G,False,R,False
A11O504U2EJUGU:3NPFYT4IZDOZ25LURD5TR6THAQAGX8,8,regular_82,regular_82,regular,NA,NA,82,None,G,0.176,R,False,G,False
A11O504U2EJUGU:3NPFYT4IZDOZ25LURD5TR6THAQAGX8,8,porous_2_a,porous_2,contained,porous,a,2,Fwd,G,0.608,G,False,G,False
A11O504U2EJUGU:3NPFYT4IZDOZ25LURD5TR6THAQAGX8,8,regular_75,regular_75,regular,NA,NA,75,Fwd,G,0.117,R,False,G,False
A11O504U2EJUGU:3NPFYT4IZDOZ25LURD5TR6THAQAGX8,8,stopper_6_b,stopper_6,contained,stopper,b,6,Fwd,R,0.078,G,False,R,False
A11O504U2EJUGU:3NPFYT4IZDOZ25LURD5TR6THAQAGX8,8,size_4_c,size_4,contained,size,c,4,Rev,G,0.983,G,False,G,False
A11O504U2EJUGU:3NPFYT4IZDOZ25LURD5TR6THAQAGX8,8,stopper_1_c,stopper_1,contained,stopper,c,1,None,G,0.776,G,True,R,False
A11O504U2EJUGU:3NPFYT4IZDOZ25LURD5TR6THAQAGX8,8,regular_13,regular_13,regular,NA,NA,13,None,R,0.532,G,True,G,False
A11O504U2EJUGU:3NPFYT4IZDOZ25LURD5TR6THAQAGX8,8,regular_17,regular_17,regular,NA,NA,17,Fwd,R,0.047,G,True,G,False
A11O504U2EJUGU:3NPFYT4IZDOZ25LURD5TR6THAQAGX8,8,regular_94,regular_94,regular,NA,NA,94,None,R,0.21,G,False,R,False
A11O504U2EJUGU:3NPFYT4IZDOZ25LURD5TR6THAQAGX8,8,regular_43,regular_43,regular,NA,NA,43,None,R,0.492,R,False,R,False
A11O504U2EJUGU:3NPFYT4IZDOZ25LURD5TR6THAQAGX8,8,regular_49,regular_49,regular,NA,NA,49,None,G,0.394,R,False,G,False
A11O504U2EJUGU:3NPFYT4IZDOZ25LURD5TR6THAQAGX8,8,regular_74,regular_74,regular,NA,NA,74,Fwd,R,0.646,G,True,G,False
A11O504U2EJUGU:3NPFYT4IZDOZ25LURD5TR6THAQAGX8,8,regular_32,regular_32,regular,NA,NA,32,Fwd,G,0.744,R,True,R,False
A11O504U2EJUGU:3NPFYT4IZDOZ25LURD5TR6THAQAGX8,8,stopper_5_a,stopper_5,contained,stopper,a,5,None,G,0.526,G,True,R,False
A11O504U2EJUGU:3NPFYT4IZDOZ25LURD5TR6THAQAGX8,8,regular_24,regular_24,regular,NA,NA,24,Fwd,G,0.379,G,True,R,False
A11O504U2EJUGU:3NPFYT4IZDOZ25LURD5TR6THAQAGX8,8,complex_2_a,complex_2,contained,complex,a,2,Fwd,G,0.497,G,False,G,False
A11O504U2EJUGU:3NPFYT4IZDOZ25LURD5TR6THAQAGX8,8,regular_34,regular_34,regular,NA,NA,34,None,R,0.914,G,True,G,False
A11O504U2EJUGU:3NPFYT4IZDOZ25LURD5TR6THAQAGX8,8,regular_16,regular_16,regular,NA,NA,16,None,G,0.51,G,True,R,False
A11O504U2EJUGU:3NPFYT4IZDOZ25LURD5TR6THAQAGX8,8,porous_1_c,porous_1,contained,porous,c,1,Rev,G,0.51,G,False,G,False
A11O504U2EJUGU:3NPFYT4IZDOZ25LURD5TR6THAQAGX8,8,regular_67,regular_67,regular,NA,NA,67,None,G,0.81,G,True,R,False
A11O504U2EJUGU:3NPFYT4IZDOZ25LURD5TR6THAQAGX8,8,regular_8,regular_8,regular,NA,NA,8,Fwd,G,0.941,R,False,G,False
A11TY4VHBBJLJR:3VBEN272MLJR6OZVX3Z6SYCPWX7GS8,6,size_2_b,size_2,contained,size,b,2,None,G,1.211,G,False,G,False
A11TY4VHBBJLJR:3VBEN272MLJR6OZVX3Z6SYCPWX7GS8,6,regular_93,regular_93,regular,NA,NA,93,None,G,2.306,G,True,R,False
A11TY4VHBBJLJR:3VBEN272MLJR6OZVX3Z6SYCPWX7GS8,6,regular_37,regular_37,regular,NA,NA,37,Fwd,NA,-1,R,True,NA,False
A11TY4VHBBJLJR:3VBEN272MLJR6OZVX3Z6SYCPWX7GS8,6,regular_21,regular_21,regular,NA,NA,21,None,R,1.774,R,False,R,False
A11TY4VHBBJLJR:3VBEN272MLJR6OZVX3Z6SYCPWX7GS8,6,porous_6_c,porous_6,contained,porous,c,6,None,G,2.06,G,True,R,False
A11TY4VHBBJLJR:3VBEN272MLJR6OZVX3Z6SYCPWX7GS8,6,porous_2_b,porous_2,contained,porous,b,2,Fwd,G,1.268,G,False,G,False
A11TY4VHBBJLJR:3VBEN272MLJR6OZVX3Z6SYCPWX7GS8,6,regular_35,regular_35,regular,NA,NA,35,Fwd,R,1.561,G,False,R,False
A11TY4VHBBJLJR:3VBEN272MLJR6OZVX3Z6SYCPWX7GS8,6,complex_5_b,complex_5,contained,complex,b,5,Rev,R,0.237,G,True,G,False
A11TY4VHBBJLJR:3VBEN272MLJR6OZVX3Z6SYCPWX7GS8,6,regular_19,regular_19,regular,NA,NA,19,Fwd,G,0.42,G,True,R,False
A11TY4VHBBJLJR:3VBEN272MLJR6OZVX3Z6SYCPWX7GS8,6,regular_8,regular_8,regular,NA,NA,8,Fwd,G,0.727,R,False,G,False
A11TY4VHBBJLJR:3VBEN272MLJR6OZVX3Z6SYCPWX7GS8,6,regular_41,regular_41,regular,NA,NA,41,Fwd,R,1.184,R,False,R,False
A11TY4VHBBJLJR:3VBEN272MLJR6OZVX3Z6SYCPWX7GS8,6,regular_26,regular_26,regular,NA,NA,26,Fwd,G,0.857,R,False,G,False
A11TY4VHBBJLJR:3VBEN272MLJR6OZVX3Z6SYCPWX7GS8,6,regular_17,regular_17,regular,NA,NA,17,Fwd,R,0.712,G,False,R,False
A11TY4VHBBJLJR:3VBEN272MLJR6OZVX3Z6SYCPWX7GS8,6,regular_62,regular_62,regular,NA,NA,62,Fwd,R,0.4,G,False,R,False
A11TY4VHBBJLJR:3VBEN272MLJR6OZVX3Z6SYCPWX7GS8,6,regular_65,regular_65,regular,NA,NA,65,Fwd,R,0.246,G,True,G,False
A11TY4VHBBJLJR:3VBEN272MLJR6OZVX3Z6SYCPWX7GS8,6,stopper_6_c,stopper_6,contained,stopper,c,6,Fwd,G,0.396,G,True,R,False
A11TY4VHBBJLJR:3VBEN272MLJR6OZVX3Z6SYCPWX7GS8,6,regular_70,regular_70,regular,NA,NA,70,Fwd,R,0.648,G,True,G,False
A11TY4VHBBJLJR:3VBEN272MLJR6OZVX3Z6SYCPWX7GS8,6,regular_12,regular_12,regular,NA,NA,12,None,R,0.505,G,False,R,False
A11TY4VHBBJLJR:3VBEN272MLJR6OZVX3Z6SYCPWX7GS8,6,regular_58,regular_58,regular,NA,NA,58,Fwd,R,0.719,G,False,R,False
A11TY4VHBBJLJR:3VBEN272MLJR6OZVX3Z6SYCPWX7GS8,6,regular_83,regular_83,regular,NA,NA,83,Fwd,R,0.85,G,True,G,False
A11TY4VHBBJLJR:3VBEN272MLJR6OZVX3Z6SYCPWX7GS8,6,regular_67,regular_67,regular,NA,NA,67,Fwd,G,0.443,G,True,R,False
A11TY4VHBBJLJR:3VBEN272MLJR6OZVX3Z6SYCPWX7GS8,6,regular_3,regular_3,regular,NA,NA,3,None,G,1.355,R,True,R,False
A11TY4VHBBJLJR:3VBEN272MLJR6OZVX3Z6SYCPWX7GS8,6,regular_33,regular_33,regular,NA,NA,33,None,G,0.774,R,False,G,False
A11TY4VHBBJLJR:3VBEN272MLJR6OZVX3Z6SYCPWX7GS8,6,regular_63,regular_63,regular,NA,NA,63,None,R,0.655,R,False,R,False
A11TY4VHBBJLJR:3VBEN272MLJR6OZVX3Z6SYCPWX7GS8,6,size_1_a,size_1,contained,size,a,1,Rev,G,0.786,G,False,G,False
A11TY4VHBBJLJR:3VBEN272MLJR6OZVX3Z6SYCPWX7GS8,6,regular_95,regular_95,regular,NA,NA,95,Fwd,R,0.545,G,False,R,False
A11TY4VHBBJLJR:3VBEN272MLJR6OZVX3Z6SYCPWX7GS8,6,regular_79,regular_79,regular,NA,NA,79,Fwd,R,0.226,G,True,G,False
A11TY4VHBBJLJR:3VBEN272MLJR6OZVX3Z6SYCPWX7GS8,6,regular_56,regular_56,regular,NA,NA,56,Fwd,G,0.037,R,True,R,False
A11TY4VHBBJLJR:3VBEN272MLJR6OZVX3Z6SYCPWX7GS8,6,regular_6,regular_6,regular,NA,NA,6,None,G,0.466,G,False,G,False
A11TY4VHBBJLJR:3VBEN272MLJR6OZVX3Z6SYCPWX7GS8,6,complex_6_c,complex_6,contained,complex,c,6,None,R,0.982,G,False,R,False
A11TY4VHBBJLJR:3VBEN272MLJR6OZVX3Z6SYCPWX7GS8,6,regular_91,regular_91,regular,NA,NA,91,Fwd,G,0.643,R,False,G,False
A11TY4VHBBJLJR:3VBEN272MLJR6OZVX3Z6SYCPWX7GS8,6,regular_27,regular_27,regular,NA,NA,27,None,G,0.608,G,True,R,False
A11TY4VHBBJLJR:3VBEN272MLJR6OZVX3Z6SYCPWX7GS8,6,regular_36,regular_36,regular,NA,NA,36,None,G,0.578,G,True,R,False
A11TY4VHBBJLJR:3VBEN272MLJR6OZVX3Z6SYCPWX7GS8,6,regular_80,regular_80,regular,NA,NA,80,Fwd,G,0.145,R,False,G,False
A11TY4VHBBJLJR:3VBEN272MLJR6OZVX3Z6SYCPWX7GS8,6,regular_53,regular_53,regular,NA,NA,53,Fwd,G,0.3,R,False,G,False
A11TY4VHBBJLJR:3VBEN272MLJR6OZVX3Z6SYCPWX7GS8,6,regular_29,regular_29,regular,NA,NA,29,Fwd,R,0.537,R,False,R,False
A11TY4VHBBJLJR:3VBEN272MLJR6OZVX3Z6SYCPWX7GS8,6,regular_50,regular_50,regular,NA,NA,50,Fwd,G,1.04,R,True,R,False
A11TY4VHBBJLJR:3VBEN272MLJR6OZVX3Z6SYCPWX7GS8,6,regular_74,regular_74,regular,NA,NA,74,Fwd,R,0.552,G,False,R,False
A11TY4VHBBJLJR:3VBEN272MLJR6OZVX3Z6SYCPWX7GS8,6,regular_43,regular_43,regular,NA,NA,43,Fwd,R,0.79,R,False,R,False
A11TY4VHBBJLJR:3VBEN272MLJR6OZVX3Z6SYCPWX7GS8,6,regular_72,regular_72,regular,NA,NA,72,None,R,0.225,R,False,R,False
A11TY4VHBBJLJR:3VBEN272MLJR6OZVX3Z6SYCPWX7GS8,6,complex_1_a,complex_1,contained,complex,a,1,None,G,0.139,G,True,R,False
A11TY4VHBBJLJR:3VBEN272MLJR6OZVX3Z6SYCPWX7GS8,6,regular_5,regular_5,regular,NA,NA,5,Fwd,R,0.144,R,False,R,False
A11TY4VHBBJLJR:3VBEN272MLJR6OZVX3Z6SYCPWX7GS8,6,regular_47,regular_47,regular,NA,NA,47,Fwd,R,0.779,R,True,G,False
A11TY4VHBBJLJR:3VBEN272MLJR6OZVX3Z6SYCPWX7GS8,6,regular_55,regular_55,regular,NA,NA,55,Fwd,R,0.956,G,False,R,False
A11TY4VHBBJLJR:3VBEN272MLJR6OZVX3Z6SYCPWX7GS8,6,size_5_b,size_5,contained,size,b,5,Fwd,R,0.276,G,False,R,False
A11TY4VHBBJLJR:3VBEN272MLJR6OZVX3Z6SYCPWX7GS8,6,regular_61,regular_61,regular,NA,NA,61,Fwd,R,0.514,R,True,G,False
A11TY4VHBBJLJR:3VBEN272MLJR6OZVX3Z6SYCPWX7GS8,6,regular_23,regular_23,regular,NA,NA,23,Fwd,G,0.437,R,False,G,False
A11TY4VHBBJLJR:3VBEN272MLJR6OZVX3Z6SYCPWX7GS8,6,regular_11,regular_11,regular,NA,NA,11,Fwd,G,0.198,R,True,R,False
A11TY4VHBBJLJR:3VBEN272MLJR6OZVX3Z6SYCPWX7GS8,6,regular_92,regular_92,regular,NA,NA,92,Fwd,G,0.434,R,False,G,False
A11TY4VHBBJLJR:3VBEN272MLJR6OZVX3Z6SYCPWX7GS8,6,complex_4_a,complex_4,contained,complex,a,4,Fwd,G,0.109,G,True,R,False
A11TY4VHBBJLJR:3VBEN272MLJR6OZVX3Z6SYCPWX7GS8,6,regular_46,regular_46,regular,NA,NA,46,Fwd,G,0.12,G,True,R,False
A11TY4VHBBJLJR:3VBEN272MLJR6OZVX3Z6SYCPWX7GS8,6,regular_66,regular_66,regular,NA,NA,66,None,G,0.387,R,True,R,False
A11TY4VHBBJLJR:3VBEN272MLJR6OZVX3Z6SYCPWX7GS8,6,stopper_1_a,stopper_1,contained,stopper,a,1,Fwd,R,0.15,G,False,R,False
A11TY4VHBBJLJR:3VBEN272MLJR6OZVX3Z6SYCPWX7GS8,6,regular_39,regular_39,regular,NA,NA,39,None,G,2.022,G,True,R,False
A11TY4VHBBJLJR:3VBEN272MLJR6OZVX3Z6SYCPWX7GS8,6,regular_87,regular_87,regular,NA,NA,87,None,G,0.883,G,True,R,False
A11TY4VHBBJLJR:3VBEN272MLJR6OZVX3Z6SYCPWX7GS8,6,regular_59,regular_59,regular,NA,NA,59,Fwd,G,1.464,R,False,G,False
A11TY4VHBBJLJR:3VBEN272MLJR6OZVX3Z6SYCPWX7GS8,6,regular_24,regular_24,regular,NA,NA,24,None,G,0.143,G,True,R,False
A11TY4VHBBJLJR:3VBEN272MLJR6OZVX3Z6SYCPWX7GS8,6,regular_40,regular_40,regular,NA,NA,40,Fwd,R,2.411,R,False,R,False
A11TY4VHBBJLJR:3VBEN272MLJR6OZVX3Z6SYCPWX7GS8,6,regular_57,regular_57,regular,NA,NA,57,None,R,0.42,G,True,G,False
A11TY4VHBBJLJR:3VBEN272MLJR6OZVX3Z6SYCPWX7GS8,6,size_6_c,size_6,contained,size,c,6,Rev,G,1.137,G,False,G,False
A11TY4VHBBJLJR:3VBEN272MLJR6OZVX3Z6SYCPWX7GS8,6,regular_1,regular_1,regular,NA,NA,1,Fwd,G,0.287,G,False,G,False
A11TY4VHBBJLJR:3VBEN272MLJR6OZVX3Z6SYCPWX7GS8,6,regular_7,regular_7,regular,NA,NA,7,Fwd,G,0.909,G,True,R,False
A11TY4VHBBJLJR:3VBEN272MLJR6OZVX3Z6SYCPWX7GS8,6,regular_73,regular_73,regular,NA,NA,73,Fwd,R,0.907,G,False,R,False
A11TY4VHBBJLJR:3VBEN272MLJR6OZVX3Z6SYCPWX7GS8,6,regular_75,regular_75,regular,NA,NA,75,None,R,0.797,R,False,R,False
A11TY4VHBBJLJR:3VBEN272MLJR6OZVX3Z6SYCPWX7GS8,6,regular_0,regular_0,regular,NA,NA,0,None,G,0.243,R,True,R,False
A11TY4VHBBJLJR:3VBEN272MLJR6OZVX3Z6SYCPWX7GS8,6,regular_54,regular_54,regular,NA,NA,54,None,G,0.4,R,False,G,False
A11TY4VHBBJLJR:3VBEN272MLJR6OZVX3Z6SYCPWX7GS8,6,regular_86,regular_86,regular,NA,NA,86,Fwd,R,1.286,G,False,R,False
A11TY4VHBBJLJR:3VBEN272MLJR6OZVX3Z6SYCPWX7GS8,6,regular_94,regular_94,regular,NA,NA,94,Fwd,G,0.966,G,False,G,False
A11TY4VHBBJLJR:3VBEN272MLJR6OZVX3Z6SYCPWX7GS8,6,regular_76,regular_76,regular,NA,NA,76,Fwd,R,1.46,R,True,G,False
A11TY4VHBBJLJR:3VBEN272MLJR6OZVX3Z6SYCPWX7GS8,6,regular_60,regular_60,regular,NA,NA,60,None,R,1.148,R,False,R,False
A11TY4VHBBJLJR:3VBEN272MLJR6OZVX3Z6SYCPWX7GS8,6,regular_34,regular_34,regular,NA,NA,34,Fwd,G,1.673,G,True,R,False
A11TY4VHBBJLJR:3VBEN272MLJR6OZVX3Z6SYCPWX7GS8,6,regular_48,regular_48,regular,NA,NA,48,None,G,0.969,R,True,R,False
A11TY4VHBBJLJR:3VBEN272MLJR6OZVX3Z6SYCPWX7GS8,6,regular_32,regular_32,regular,NA,NA,32,Fwd,G,1.168,R,True,R,False
A11TY4VHBBJLJR:3VBEN272MLJR6OZVX3Z6SYCPWX7GS8,6,regular_22,regular_22,regular,NA,NA,22,Fwd,R,1.122,G,True,G,False
A11TY4VHBBJLJR:3VBEN272MLJR6OZVX3Z6SYCPWX7GS8,6,size_4_a,size_4,contained,size,a,4,None,G,0.879,G,False,G,False
A11TY4VHBBJLJR:3VBEN272MLJR6OZVX3Z6SYCPWX7GS8,6,regular_15,regular_15,regular,NA,NA,15,None,R,1.604,G,True,G,False
A11TY4VHBBJLJR:3VBEN272MLJR6OZVX3Z6SYCPWX7GS8,6,regular_49,regular_49,regular,NA,NA,49,Fwd,G,0.179,R,True,R,False
A11TY4VHBBJLJR:3VBEN272MLJR6OZVX3Z6SYCPWX7GS8,6,regular_88,regular_88,regular,NA,NA,88,Fwd,R,1.125,G,True,G,False
A11TY4VHBBJLJR:3VBEN272MLJR6OZVX3Z6SYCPWX7GS8,6,regular_9,regular_9,regular,NA,NA,9,None,G,0.626,R,False,G,False
A11TY4VHBBJLJR:3VBEN272MLJR6OZVX3Z6SYCPWX7GS8,6,regular_52,regular_52,regular,NA,NA,52,Fwd,R,1.11,R,True,G,False
A11TY4VHBBJLJR:3VBEN272MLJR6OZVX3Z6SYCPWX7GS8,6,regular_82,regular_82,regular,NA,NA,82,Fwd,R,1.333,R,False,R,False
A11TY4VHBBJLJR:3VBEN272MLJR6OZVX3Z6SYCPWX7GS8,6,regular_31,regular_31,regular,NA,NA,31,Fwd,G,0.785,G,True,R,False
A11TY4VHBBJLJR:3VBEN272MLJR6OZVX3Z6SYCPWX7GS8,6,regular_38,regular_38,regular,NA,NA,38,Fwd,R,2.149,G,False,R,False
A11TY4VHBBJLJR:3VBEN272MLJR6OZVX3Z6SYCPWX7GS8,6,regular_2,regular_2,regular,NA,NA,2,Fwd,G,0.991,G,False,G,False
A11TY4VHBBJLJR:3VBEN272MLJR6OZVX3Z6SYCPWX7GS8,6,regular_16,regular_16,regular,NA,NA,16,Fwd,G,0.911,G,True,R,False
A11TY4VHBBJLJR:3VBEN272MLJR6OZVX3Z6SYCPWX7GS8,6,regular_77,regular_77,regular,NA,NA,77,Fwd,G,0.971,G,True,R,False
A11TY4VHBBJLJR:3VBEN272MLJR6OZVX3Z6SYCPWX7GS8,6,regular_84,regular_84,regular,NA,NA,84,None,R,1.311,G,True,G,False
A11TY4VHBBJLJR:3VBEN272MLJR6OZVX3Z6SYCPWX7GS8,6,stopper_5_b,stopper_5,contained,stopper,b,5,None,G,2.397,G,False,G,False
A11TY4VHBBJLJR:3VBEN272MLJR6OZVX3Z6SYCPWX7GS8,6,porous_5_b,porous_5,contained,porous,b,5,Rev,G,0.765,G,False,G,False
A11TY4VHBBJLJR:3VBEN272MLJR6OZVX3Z6SYCPWX7GS8,6,regular_78,regular_78,regular,NA,NA,78,None,R,0.966,G,True,G,False
A11TY4VHBBJLJR:3VBEN272MLJR6OZVX3Z6SYCPWX7GS8,6,regular_4,regular_4,regular,NA,NA,4,Fwd,G,2.288,R,True,R,False
A11TY4VHBBJLJR:3VBEN272MLJR6OZVX3Z6SYCPWX7GS8,6,regular_51,regular_51,regular,NA,NA,51,None,NA,-1,G,True,NA,False
A11TY4VHBBJLJR:3VBEN272MLJR6OZVX3Z6SYCPWX7GS8,6,regular_44,regular_44,regular,NA,NA,44,Fwd,G,1.586,G,True,R,False
A11TY4VHBBJLJR:3VBEN272MLJR6OZVX3Z6SYCPWX7GS8,6,complex_2_b,complex_2,contained,complex,b,2,Fwd,G,1.472,G,False,G,False
A11TY4VHBBJLJR:3VBEN272MLJR6OZVX3Z6SYCPWX7GS8,6,regular_10,regular_10,regular,NA,NA,10,Fwd,R,0.793,R,True,G,False
A11TY4VHBBJLJR:3VBEN272MLJR6OZVX3Z6SYCPWX7GS8,6,stopper_4_a,stopper_4,contained,stopper,a,4,Rev,G,1.073,G,True,R,False
A11TY4VHBBJLJR:3VBEN272MLJR6OZVX3Z6SYCPWX7GS8,6,regular_85,regular_85,regular,NA,NA,85,Fwd,G,1.416,G,True,R,False
A11TY4VHBBJLJR:3VBEN272MLJR6OZVX3Z6SYCPWX7GS8,6,regular_81,regular_81,regular,NA,NA,81,None,R,1.52,G,True,G,False
A11TY4VHBBJLJR:3VBEN272MLJR6OZVX3Z6SYCPWX7GS8,6,regular_25,regular_25,regular,NA,NA,25,Fwd,G,1.299,R,True,R,False
A11TY4VHBBJLJR:3VBEN272MLJR6OZVX3Z6SYCPWX7GS8,6,size_3_c,size_3,contained,size,c,3,Fwd,G,0.465,G,True,R,False
A11TY4VHBBJLJR:3VBEN272MLJR6OZVX3Z6SYCPWX7GS8,6,regular_71,regular_71,regular,NA,NA,71,Fwd,G,0.646,R,True,R,False
A11TY4VHBBJLJR:3VBEN272MLJR6OZVX3Z6SYCPWX7GS8,6,regular_14,regular_14,regular,NA,NA,14,Fwd,G,0.864,G,True,R,False
A11TY4VHBBJLJR:3VBEN272MLJR6OZVX3Z6SYCPWX7GS8,6,regular_64,regular_64,regular,NA,NA,64,Fwd,R,0.943,G,True,G,False
A11TY4VHBBJLJR:3VBEN272MLJR6OZVX3Z6SYCPWX7GS8,6,regular_20,regular_20,regular,NA,NA,20,Fwd,G,1.066,G,False,G,False
A11TY4VHBBJLJR:3VBEN272MLJR6OZVX3Z6SYCPWX7GS8,6,complex_3_c,complex_3,contained,complex,c,3,Rev,G,1.517,G,True,R,False
A11TY4VHBBJLJR:3VBEN272MLJR6OZVX3Z6SYCPWX7GS8,6,regular_13,regular_13,regular,NA,NA,13,Fwd,G,1.456,G,False,G,False
A11TY4VHBBJLJR:3VBEN272MLJR6OZVX3Z6SYCPWX7GS8,6,regular_90,regular_90,regular,NA,NA,90,None,R,1.475,G,True,G,False
A11TY4VHBBJLJR:3VBEN272MLJR6OZVX3Z6SYCPWX7GS8,6,regular_42,regular_42,regular,NA,NA,42,None,G,0.856,G,False,G,False
A11TY4VHBBJLJR:3VBEN272MLJR6OZVX3Z6SYCPWX7GS8,6,regular_18,regular_18,regular,NA,NA,18,None,G,1.1,G,True,R,False
A11TY4VHBBJLJR:3VBEN272MLJR6OZVX3Z6SYCPWX7GS8,6,porous_3_c,porous_3,contained,porous,c,3,Rev,R,1.007,G,True,G,False
A11TY4VHBBJLJR:3VBEN272MLJR6OZVX3Z6SYCPWX7GS8,6,stopper_3_c,stopper_3,contained,stopper,c,3,None,G,0.828,G,True,R,False
A11TY4VHBBJLJR:3VBEN272MLJR6OZVX3Z6SYCPWX7GS8,6,porous_4_a,porous_4,contained,porous,a,4,Fwd,G,0.789,G,False,G,False
A11TY4VHBBJLJR:3VBEN272MLJR6OZVX3Z6SYCPWX7GS8,6,regular_68,regular_68,regular,NA,NA,68,Fwd,R,1.593,R,False,R,False
A11TY4VHBBJLJR:3VBEN272MLJR6OZVX3Z6SYCPWX7GS8,6,regular_69,regular_69,regular,NA,NA,69,None,R,2.113,G,True,G,False
A11TY4VHBBJLJR:3VBEN272MLJR6OZVX3Z6SYCPWX7GS8,6,stopper_2_b,stopper_2,contained,stopper,b,2,Rev,G,0.943,G,True,R,False
A11TY4VHBBJLJR:3VBEN272MLJR6OZVX3Z6SYCPWX7GS8,6,regular_89,regular_89,regular,NA,NA,89,Fwd,R,0.795,R,True,G,False
A11TY4VHBBJLJR:3VBEN272MLJR6OZVX3Z6SYCPWX7GS8,6,regular_28,regular_28,regular,NA,NA,28,Fwd,R,1.095,R,True,G,False
A11TY4VHBBJLJR:3VBEN272MLJR6OZVX3Z6SYCPWX7GS8,6,regular_45,regular_45,regular,NA,NA,45,None,G,0.95,G,True,R,False
A11TY4VHBBJLJR:3VBEN272MLJR6OZVX3Z6SYCPWX7GS8,6,regular_30,regular_30,regular,NA,NA,30,None,R,0.979,G,True,G,False
A11TY4VHBBJLJR:3VBEN272MLJR6OZVX3Z6SYCPWX7GS8,6,porous_1_a,porous_1,contained,porous,a,1,None,G,0.635,G,False,G,False
A11YS0T8MV3Q7C:3LEIZ60CDKJ9SQY1EPN4WAN5F19Z96,4,stopper_6_a,stopper_6,contained,stopper,a,6,Rev,G,0.635,G,True,R,False
A11YS0T8MV3Q7C:3LEIZ60CDKJ9SQY1EPN4WAN5F19Z96,4,regular_79,regular_79,regular,NA,NA,79,Fwd,G,0.799,G,False,G,False
A11YS0T8MV3Q7C:3LEIZ60CDKJ9SQY1EPN4WAN5F19Z96,4,regular_95,regular_95,regular,NA,NA,95,None,G,0.648,G,True,R,False
A11YS0T8MV3Q7C:3LEIZ60CDKJ9SQY1EPN4WAN5F19Z96,4,regular_32,regular_32,regular,NA,NA,32,None,G,1.183,R,False,G,False
A11YS0T8MV3Q7C:3LEIZ60CDKJ9SQY1EPN4WAN5F19Z96,4,regular_3,regular_3,regular,NA,NA,3,Fwd,G,0.965,R,True,R,False
A11YS0T8MV3Q7C:3LEIZ60CDKJ9SQY1EPN4WAN5F19Z96,4,regular_82,regular_82,regular,NA,NA,82,Fwd,G,0.243,R,False,G,False
A11YS0T8MV3Q7C:3LEIZ60CDKJ9SQY1EPN4WAN5F19Z96,4,regular_91,regular_91,regular,NA,NA,91,Fwd,G,0.329,R,True,R,False
A11YS0T8MV3Q7C:3LEIZ60CDKJ9SQY1EPN4WAN5F19Z96,4,regular_94,regular_94,regular,NA,NA,94,Fwd,R,1.622,G,False,R,False
A11YS0T8MV3Q7C:3LEIZ60CDKJ9SQY1EPN4WAN5F19Z96,4,size_4_b,size_4,contained,size,b,4,None,G,1.326,G,True,R,False
A11YS0T8MV3Q7C:3LEIZ60CDKJ9SQY1EPN4WAN5F19Z96,4,regular_57,regular_57,regular,NA,NA,57,Fwd,R,1.352,G,True,G,False
A11YS0T8MV3Q7C:3LEIZ60CDKJ9SQY1EPN4WAN5F19Z96,4,complex_5_c,complex_5,contained,complex,c,5,Rev,R,0.076,G,False,R,False
A11YS0T8MV3Q7C:3LEIZ60CDKJ9SQY1EPN4WAN5F19Z96,4,regular_16,regular_16,regular,NA,NA,16,Fwd,G,0.308,G,True,R,False
A11YS0T8MV3Q7C:3LEIZ60CDKJ9SQY1EPN4WAN5F19Z96,4,regular_8,regular_8,regular,NA,NA,8,None,G,0.572,R,True,R,False
A11YS0T8MV3Q7C:3LEIZ60CDKJ9SQY1EPN4WAN5F19Z96,4,regular_50,regular_50,regular,NA,NA,50,None,G,0.968,R,True,R,False
A11YS0T8MV3Q7C:3LEIZ60CDKJ9SQY1EPN4WAN5F19Z96,4,regular_73,regular_73,regular,NA,NA,73,Fwd,G,0.665,G,False,G,False
A11YS0T8MV3Q7C:3LEIZ60CDKJ9SQY1EPN4WAN5F19Z96,4,regular_76,regular_76,regular,NA,NA,76,Fwd,R,0.615,R,False,R,False
A11YS0T8MV3Q7C:3LEIZ60CDKJ9SQY1EPN4WAN5F19Z96,4,regular_13,regular_13,regular,NA,NA,13,Fwd,G,0.616,G,True,R,False
A11YS0T8MV3Q7C:3LEIZ60CDKJ9SQY1EPN4WAN5F19Z96,4,porous_5_c,porous_5,contained,porous,c,5,Rev,R,0.063,G,False,R,False
A11YS0T8MV3Q7C:3LEIZ60CDKJ9SQY1EPN4WAN5F19Z96,4,regular_43,regular_43,regular,NA,NA,43,Fwd,R,0.113,R,True,G,False
A11YS0T8MV3Q7C:3LEIZ60CDKJ9SQY1EPN4WAN5F19Z96,4,regular_46,regular_46,regular,NA,NA,46,Fwd,G,0.632,G,False,G,False
A11YS0T8MV3Q7C:3LEIZ60CDKJ9SQY1EPN4WAN5F19Z96,4,stopper_3_a,stopper_3,contained,stopper,a,3,Fwd,G,0.655,G,False,G,False
A11YS0T8MV3Q7C:3LEIZ60CDKJ9SQY1EPN4WAN5F19Z96,4,porous_2_c,porous_2,contained,porous,c,2,Fwd,G,0.599,G,True,R,False
A11YS0T8MV3Q7C:3LEIZ60CDKJ9SQY1EPN4WAN5F19Z96,4,regular_69,regular_69,regular,NA,NA,69,Fwd,G,0.365,G,False,G,False
A11YS0T8MV3Q7C:3LEIZ60CDKJ9SQY1EPN4WAN5F19Z96,4,regular_63,regular_63,regular,NA,NA,63,Fwd,R,0.619,R,True,G,False
A11YS0T8MV3Q7C:3LEIZ60CDKJ9SQY1EPN4WAN5F19Z96,4,regular_61,regular_61,regular,NA,NA,61,Fwd,G,0.506,R,True,R,False
A11YS0T8MV3Q7C:3LEIZ60CDKJ9SQY1EPN4WAN5F19Z96,4,regular_33,regular_33,regular,NA,NA,33,Fwd,R,0.491,R,True,G,False
A11YS0T8MV3Q7C:3LEIZ60CDKJ9SQY1EPN4WAN5F19Z96,4,regular_53,regular_53,regular,NA,NA,53,None,R,0.519,R,False,R,False
A11YS0T8MV3Q7C:3LEIZ60CDKJ9SQY1EPN4WAN5F19Z96,4,regular_38,regular_38,regular,NA,NA,38,None,G,0.493,G,False,G,False
A11YS0T8MV3Q7C:3LEIZ60CDKJ9SQY1EPN4WAN5F19Z96,4,regular_75,regular_75,regular,NA,NA,75,Fwd,G,0.52,R,False,G,False
A11YS0T8MV3Q7C:3LEIZ60CDKJ9SQY1EPN4WAN5F19Z96,4,regular_2,regular_2,regular,NA,NA,2,None,G,0.184,G,True,R,False
A11YS0T8MV3Q7C:3LEIZ60CDKJ9SQY1EPN4WAN5F19Z96,4,regular_1,regular_1,regular,NA,NA,1,Fwd,G,0.613,G,False,G,False
A11YS0T8MV3Q7C:3LEIZ60CDKJ9SQY1EPN4WAN5F19Z96,4,regular_64,regular_64,regular,NA,NA,64,Fwd,G,0.789,G,False,G,False
A11YS0T8MV3Q7C:3LEIZ60CDKJ9SQY1EPN4WAN5F19Z96,4,stopper_1_b,stopper_1,contained,stopper,b,1,Fwd,G,0.031,G,True,R,False
A11YS0T8MV3Q7C:3LEIZ60CDKJ9SQY1EPN4WAN5F19Z96,4,complex_3_a,complex_3,contained,complex,a,3,None,G,0.719,G,False,G,False
A11YS0T8MV3Q7C:3LEIZ60CDKJ9SQY1EPN4WAN5F19Z96,4,regular_54,regular_54,regular,NA,NA,54,Fwd,G,0.028,R,False,G,False
A11YS0T8MV3Q7C:3LEIZ60CDKJ9SQY1EPN4WAN5F19Z96,4,regular_92,regular_92,regular,NA,NA,92,None,G,0.504,R,True,R,False
A11YS0T8MV3Q7C:3LEIZ60CDKJ9SQY1EPN4WAN5F19Z96,4,regular_23,regular_23,regular,NA,NA,23,None,G,0.444,R,True,R,False
A11YS0T8MV3Q7C:3LEIZ60CDKJ9SQY1EPN4WAN5F19Z96,4,regular_93,regular_93,regular,NA,NA,93,Fwd,G,1.037,G,False,G,False
A11YS0T8MV3Q7C:3LEIZ60CDKJ9SQY1EPN4WAN5F19Z96,4,regular_78,regular_78,regular,NA,NA,78,Fwd,R,0.777,G,True,G,False
A11YS0T8MV3Q7C:3LEIZ60CDKJ9SQY1EPN4WAN5F19Z96,4,regular_4,regular_4,regular,NA,NA,4,Fwd,R,1.335,R,True,G,False
A11YS0T8MV3Q7C:3LEIZ60CDKJ9SQY1EPN4WAN5F19Z96,4,regular_44,regular_44,regular,NA,NA,44,None,G,0.413,G,False,G,False
A11YS0T8MV3Q7C:3LEIZ60CDKJ9SQY1EPN4WAN5F19Z96,4,stopper_5_c,stopper_5,contained,stopper,c,5,None,G,0.597,G,False,G,False
A11YS0T8MV3Q7C:3LEIZ60CDKJ9SQY1EPN4WAN5F19Z96,4,regular_26,regular_26,regular,NA,NA,26,None,R,0.651,R,True,G,False
A11YS0T8MV3Q7C:3LEIZ60CDKJ9SQY1EPN4WAN5F19Z96,4,regular_88,regular_88,regular,NA,NA,88,Fwd,R,0.561,G,False,R,False
A11YS0T8MV3Q7C:3LEIZ60CDKJ9SQY1EPN4WAN5F19Z96,4,regular_70,regular_70,regular,NA,NA,70,Fwd,R,0.086,G,True,G,False
A11YS0T8MV3Q7C:3LEIZ60CDKJ9SQY1EPN4WAN5F19Z96,4,regular_85,regular_85,regular,NA,NA,85,Fwd,G,0.432,G,True,R,False
A11YS0T8MV3Q7C:3LEIZ60CDKJ9SQY1EPN4WAN5F19Z96,4,regular_40,regular_40,regular,NA,NA,40,Fwd,R,0.651,R,True,G,False
A11YS0T8MV3Q7C:3LEIZ60CDKJ9SQY1EPN4WAN5F19Z96,4,regular_21,regular_21,regular,NA,NA,21,Fwd,G,0.26,R,True,R,False
A11YS0T8MV3Q7C:3LEIZ60CDKJ9SQY1EPN4WAN5F19Z96,4,regular_55,regular_55,regular,NA,NA,55,Fwd,R,0.131,G,True,G,False
A11YS0T8MV3Q7C:3LEIZ60CDKJ9SQY1EPN4WAN5F19Z96,4,regular_58,regular_58,regular,NA,NA,58,Fwd,R,0.425,G,False,R,False
A11YS0T8MV3Q7C:3LEIZ60CDKJ9SQY1EPN4WAN5F19Z96,4,regular_81,regular_81,regular,NA,NA,81,Fwd,G,0.787,G,True,R,False
A11YS0T8MV3Q7C:3LEIZ60CDKJ9SQY1EPN4WAN5F19Z96,4,regular_36,regular_36,regular,NA,NA,36,Fwd,G,0.02,G,True,R,False
A11YS0T8MV3Q7C:3LEIZ60CDKJ9SQY1EPN4WAN5F19Z96,4,regular_51,regular_51,regular,NA,NA,51,Fwd,G,0.356,G,True,R,False
A11YS0T8MV3Q7C:3LEIZ60CDKJ9SQY1EPN4WAN5F19Z96,4,regular_18,regular_18,regular,NA,NA,18,Fwd,R,0.484,G,True,G,False
A11YS0T8MV3Q7C:3LEIZ60CDKJ9SQY1EPN4WAN5F19Z96,4,regular_24,regular_24,regular,NA,NA,24,Fwd,G,0.486,G,True,R,False
A11YS0T8MV3Q7C:3LEIZ60CDKJ9SQY1EPN4WAN5F19Z96,4,regular_39,regular_39,regular,NA,NA,39,Fwd,R,0.874,G,True,G,False
A11YS0T8MV3Q7C:3LEIZ60CDKJ9SQY1EPN4WAN5F19Z96,4,regular_71,regular_71,regular,NA,NA,71,None,R,0.445,R,True,G,False
A11YS0T8MV3Q7C:3LEIZ60CDKJ9SQY1EPN4WAN5F19Z96,4,regular_27,regular_27,regular,NA,NA,27,Fwd,G,0.058,G,False,G,False
A11YS0T8MV3Q7C:3LEIZ60CDKJ9SQY1EPN4WAN5F19Z96,4,regular_59,regular_59,regular,NA,NA,59,None,G,0.497,R,True,R,False
A11YS0T8MV3Q7C:3LEIZ60CDKJ9SQY1EPN4WAN5F19Z96,4,size_5_c,size_5,contained,size,c,5,Fwd,G,0.04,G,True,R,False
A11YS0T8MV3Q7C:3LEIZ60CDKJ9SQY1EPN4WAN5F19Z96,4,regular_87,regular_87,regular,NA,NA,87,Fwd,R,0.152,G,True,G,False
A11YS0T8MV3Q7C:3LEIZ60CDKJ9SQY1EPN4WAN5F19Z96,4,regular_28,regular_28,regular,NA,NA,28,Fwd,R,0.309,R,True,G,False
A11YS0T8MV3Q7C:3LEIZ60CDKJ9SQY1EPN4WAN5F19Z96,4,complex_1_b,complex_1,contained,complex,b,1,None,R,0.585,G,False,R,False
A11YS0T8MV3Q7C:3LEIZ60CDKJ9SQY1EPN4WAN5F19Z96,4,regular_56,regular_56,regular,NA,NA,56,None,R,0.4,R,False,R,False
A11YS0T8MV3Q7C:3LEIZ60CDKJ9SQY1EPN4WAN5F19Z96,4,regular_22,regular_22,regular,NA,NA,22,Fwd,R,0.187,G,True,G,False
A11YS0T8MV3Q7C:3LEIZ60CDKJ9SQY1EPN4WAN5F19Z96,4,regular_47,regular_47,regular,NA,NA,47,None,G,0.698,R,False,G,False
A11YS0T8MV3Q7C:3LEIZ60CDKJ9SQY1EPN4WAN5F19Z96,4,regular_80,regular_80,regular,NA,NA,80,None,R,0.326,R,False,R,False
A11YS0T8MV3Q7C:3LEIZ60CDKJ9SQY1EPN4WAN5F19Z96,4,regular_60,regular_60,regular,NA,NA,60,Fwd,R,0.04,R,False,R,False
A11YS0T8MV3Q7C:3LEIZ60CDKJ9SQY1EPN4WAN5F19Z96,4,regular_89,regular_89,regular,NA,NA,89,None,G,0.381,R,False,G,False
A11YS0T8MV3Q7C:3LEIZ60CDKJ9SQY1EPN4WAN5F19Z96,4,regular_52,regular_52,regular,NA,NA,52,Fwd,R,0.242,R,False,R,False
A11YS0T8MV3Q7C:3LEIZ60CDKJ9SQY1EPN4WAN5F19Z96,4,regular_42,regular_42,regular,NA,NA,42,Fwd,G,0.111,G,True,R,False
A11YS0T8MV3Q7C:3LEIZ60CDKJ9SQY1EPN4WAN5F19Z96,4,regular_84,regular_84,regular,NA,NA,84,Fwd,R,0.064,G,False,R,False
A11YS0T8MV3Q7C:3LEIZ60CDKJ9SQY1EPN4WAN5F19Z96,4,regular_72,regular_72,regular,NA,NA,72,Fwd,R,0.208,R,False,R,False
A11YS0T8MV3Q7C:3LEIZ60CDKJ9SQY1EPN4WAN5F19Z96,4,regular_86,regular_86,regular,NA,NA,86,None,G,0.068,G,False,G,False
A11YS0T8MV3Q7C:3LEIZ60CDKJ9SQY1EPN4WAN5F19Z96,4,regular_0,regular_0,regular,NA,NA,0,Fwd,R,0.081,R,False,R,False
A11YS0T8MV3Q7C:3LEIZ60CDKJ9SQY1EPN4WAN5F19Z96,4,regular_12,regular_12,regular,NA,NA,12,Fwd,R,0.394,G,False,R,False
A11YS0T8MV3Q7C:3LEIZ60CDKJ9SQY1EPN4WAN5F19Z96,4,regular_5,regular_5,regular,NA,NA,5,None,G,0.624,R,False,G,False
A11YS0T8MV3Q7C:3LEIZ60CDKJ9SQY1EPN4WAN5F19Z96,4,regular_35,regular_35,regular,NA,NA,35,None,G,0.365,G,True,R,False
A11YS0T8MV3Q7C:3LEIZ60CDKJ9SQY1EPN4WAN5F19Z96,4,regular_17,regular_17,regular,NA,NA,17,None,R,0.455,G,True,G,False
A11YS0T8MV3Q7C:3LEIZ60CDKJ9SQY1EPN4WAN5F19Z96,4,regular_19,regular_19,regular,NA,NA,19,Fwd,R,0.366,G,False,R,False
A11YS0T8MV3Q7C:3LEIZ60CDKJ9SQY1EPN4WAN5F19Z96,4,regular_68,regular_68,regular,NA,NA,68,None,R,0.494,R,False,R,False
A11YS0T8MV3Q7C:3LEIZ60CDKJ9SQY1EPN4WAN5F19Z96,4,regular_34,regular_34,regular,NA,NA,34,Fwd,G,0.008,G,False,G,False
A11YS0T8MV3Q7C:3LEIZ60CDKJ9SQY1EPN4WAN5F19Z96,4,regular_10,regular_10,regular,NA,NA,10,Fwd,R,0.044,R,False,R,False
A11YS0T8MV3Q7C:3LEIZ60CDKJ9SQY1EPN4WAN5F19Z96,4,regular_11,regular_11,regular,NA,NA,11,None,R,0.107,R,False,R,False
A11YS0T8MV3Q7C:3LEIZ60CDKJ9SQY1EPN4WAN5F19Z96,4,regular_74,regular_74,regular,NA,NA,74,None,R,0.587,G,True,G,False
A11YS0T8MV3Q7C:3LEIZ60CDKJ9SQY1EPN4WAN5F19Z96,4,size_6_a,size_6,contained,size,a,6,None,G,0.535,G,True,R,False
A11YS0T8MV3Q7C:3LEIZ60CDKJ9SQY1EPN4WAN5F19Z96,4,regular_29,regular_29,regular,NA,NA,29,None,R,0.042,R,False,R,False
A11YS0T8MV3Q7C:3LEIZ60CDKJ9SQY1EPN4WAN5F19Z96,4,regular_45,regular_45,regular,NA,NA,45,Fwd,G,0.524,G,False,G,False
A11YS0T8MV3Q7C:3LEIZ60CDKJ9SQY1EPN4WAN5F19Z96,4,porous_3_a,porous_3,contained,porous,a,3,None,G,0.393,G,False,G,False
A11YS0T8MV3Q7C:3LEIZ60CDKJ9SQY1EPN4WAN5F19Z96,4,regular_67,regular_67,regular,NA,NA,67,Fwd,G,0.384,G,False,G,False
A11YS0T8MV3Q7C:3LEIZ60CDKJ9SQY1EPN4WAN5F19Z96,4,regular_20,regular_20,regular,NA,NA,20,None,G,0.402,G,False,G,False
A11YS0T8MV3Q7C:3LEIZ60CDKJ9SQY1EPN4WAN5F19Z96,4,regular_7,regular_7,regular,NA,NA,7,Fwd,G,0.797,G,False,G,False
A11YS0T8MV3Q7C:3LEIZ60CDKJ9SQY1EPN4WAN5F19Z96,4,size_1_b,size_1,contained,size,b,1,Rev,G,0.121,G,True,R,False
A11YS0T8MV3Q7C:3LEIZ60CDKJ9SQY1EPN4WAN5F19Z96,4,regular_66,regular_66,regular,NA,NA,66,Fwd,R,0.228,R,True,G,False
A11YS0T8MV3Q7C:3LEIZ60CDKJ9SQY1EPN4WAN5F19Z96,4,porous_6_a,porous_6,contained,porous,a,6,Fwd,G,0.15,G,True,R,False
A11YS0T8MV3Q7C:3LEIZ60CDKJ9SQY1EPN4WAN5F19Z96,4,regular_49,regular_49,regular,NA,NA,49,Fwd,R,0.187,R,False,R,False
A11YS0T8MV3Q7C:3LEIZ60CDKJ9SQY1EPN4WAN5F19Z96,4,porous_1_b,porous_1,contained,porous,b,1,None,G,0.361,G,True,R,False
A11YS0T8MV3Q7C:3LEIZ60CDKJ9SQY1EPN4WAN5F19Z96,4,regular_90,regular_90,regular,NA,NA,90,Fwd,R,0.314,G,False,R,False
A11YS0T8MV3Q7C:3LEIZ60CDKJ9SQY1EPN4WAN5F19Z96,4,regular_14,regular_14,regular,NA,NA,14,None,R,0.327,G,True,G,False
A11YS0T8MV3Q7C:3LEIZ60CDKJ9SQY1EPN4WAN5F19Z96,4,size_2_c,size_2,contained,size,c,2,None,G,0.344,G,True,R,False
A11YS0T8MV3Q7C:3LEIZ60CDKJ9SQY1EPN4WAN5F19Z96,4,porous_4_b,porous_4,contained,porous,b,4,Fwd,G,0.244,G,True,R,False
A11YS0T8MV3Q7C:3LEIZ60CDKJ9SQY1EPN4WAN5F19Z96,4,regular_37,regular_37,regular,NA,NA,37,Fwd,R,0.306,R,True,G,False
A11YS0T8MV3Q7C:3LEIZ60CDKJ9SQY1EPN4WAN5F19Z96,4,regular_65,regular_65,regular,NA,NA,65,None,R,0.221,G,True,G,False
A11YS0T8MV3Q7C:3LEIZ60CDKJ9SQY1EPN4WAN5F19Z96,4,regular_83,regular_83,regular,NA,NA,83,None,G,0.324,G,False,G,False
A11YS0T8MV3Q7C:3LEIZ60CDKJ9SQY1EPN4WAN5F19Z96,4,regular_30,regular_30,regular,NA,NA,30,Fwd,R,0.251,G,False,R,False
A11YS0T8MV3Q7C:3LEIZ60CDKJ9SQY1EPN4WAN5F19Z96,4,stopper_2_c,stopper_2,contained,stopper,c,2,Rev,G,0.392,G,True,R,False
A11YS0T8MV3Q7C:3LEIZ60CDKJ9SQY1EPN4WAN5F19Z96,4,regular_9,regular_9,regular,NA,NA,9,Fwd,R,0.285,R,True,G,False
A11YS0T8MV3Q7C:3LEIZ60CDKJ9SQY1EPN4WAN5F19Z96,4,regular_31,regular_31,regular,NA,NA,31,Fwd,R,0.1,G,False,R,False
A11YS0T8MV3Q7C:3LEIZ60CDKJ9SQY1EPN4WAN5F19Z96,4,regular_41,regular_41,regular,NA,NA,41,None,R,0.333,R,True,G,False
A11YS0T8MV3Q7C:3LEIZ60CDKJ9SQY1EPN4WAN5F19Z96,4,complex_6_a,complex_6,contained,complex,a,6,Fwd,G,0.129,G,True,R,False
A11YS0T8MV3Q7C:3LEIZ60CDKJ9SQY1EPN4WAN5F19Z96,4,regular_77,regular_77,regular,NA,NA,77,None,G,0.202,G,True,R,False
A11YS0T8MV3Q7C:3LEIZ60CDKJ9SQY1EPN4WAN5F19Z96,4,regular_6,regular_6,regular,NA,NA,6,Fwd,R,0.389,G,False,R,False
A11YS0T8MV3Q7C:3LEIZ60CDKJ9SQY1EPN4WAN5F19Z96,4,stopper_4_b,stopper_4,contained,stopper,b,4,Rev,G,0.088,G,True,R,False
A11YS0T8MV3Q7C:3LEIZ60CDKJ9SQY1EPN4WAN5F19Z96,4,regular_25,regular_25,regular,NA,NA,25,Fwd,R,0.356,R,False,R,False
A11YS0T8MV3Q7C:3LEIZ60CDKJ9SQY1EPN4WAN5F19Z96,4,size_3_a,size_3,contained,size,a,3,Rev,R,0.101,G,False,R,False
A11YS0T8MV3Q7C:3LEIZ60CDKJ9SQY1EPN4WAN5F19Z96,4,regular_15,regular_15,regular,NA,NA,15,Fwd,R,0.165,G,False,R,False
A11YS0T8MV3Q7C:3LEIZ60CDKJ9SQY1EPN4WAN5F19Z96,4,regular_62,regular_62,regular,NA,NA,62,None,G,0.669,G,True,R,False
A11YS0T8MV3Q7C:3LEIZ60CDKJ9SQY1EPN4WAN5F19Z96,4,complex_4_b,complex_4,contained,complex,b,4,Fwd,G,0.077,G,False,G,False
A11YS0T8MV3Q7C:3LEIZ60CDKJ9SQY1EPN4WAN5F19Z96,4,complex_2_c,complex_2,contained,complex,c,2,Fwd,G,0.057,G,False,G,False
A11YS0T8MV3Q7C:3LEIZ60CDKJ9SQY1EPN4WAN5F19Z96,4,regular_48,regular_48,regular,NA,NA,48,Fwd,G,0.395,R,False,G,False
A149ROBL26JWPJ:36W0OB37HXY27WGKC1BW9RLTYCKHZD,0,regular_56,regular_56,regular,NA,NA,56,Fwd,R,1.771,R,False,R,False
A149ROBL26JWPJ:36W0OB37HXY27WGKC1BW9RLTYCKHZD,0,regular_42,regular_42,regular,NA,NA,42,None,G,1.984,G,True,R,False
A149ROBL26JWPJ:36W0OB37HXY27WGKC1BW9RLTYCKHZD,0,regular_71,regular_71,regular,NA,NA,71,Fwd,G,0.768,R,True,R,False
A149ROBL26JWPJ:36W0OB37HXY27WGKC1BW9RLTYCKHZD,0,complex_1_a,complex_1,contained,complex,a,1,Fwd,G,0.905,G,False,G,False
A149ROBL26JWPJ:36W0OB37HXY27WGKC1BW9RLTYCKHZD,0,regular_93,regular_93,regular,NA,NA,93,None,R,1.402,G,False,R,False
A149ROBL26JWPJ:36W0OB37HXY27WGKC1BW9RLTYCKHZD,0,regular_36,regular_36,regular,NA,NA,36,None,G,0.738,G,True,R,False
A149ROBL26JWPJ:36W0OB37HXY27WGKC1BW9RLTYCKHZD,0,regular_55,regular_55,regular,NA,NA,55,Fwd,R,1.035,G,False,R,False
A149ROBL26JWPJ:36W0OB37HXY27WGKC1BW9RLTYCKHZD,0,regular_69,regular_69,regular,NA,NA,69,None,G,2.252,G,False,G,False
A149ROBL26JWPJ:36W0OB37HXY27WGKC1BW9RLTYCKHZD,0,regular_68,regular_68,regular,NA,NA,68,Fwd,R,0.609,R,True,G,False
A149ROBL26JWPJ:36W0OB37HXY27WGKC1BW9RLTYCKHZD,0,size_5_b,size_5,contained,size,b,5,Rev,G,1.98,G,False,G,False
A149ROBL26JWPJ:36W0OB37HXY27WGKC1BW9RLTYCKHZD,0,regular_9,regular_9,regular,NA,NA,9,None,R,0.613,R,False,R,False
A149ROBL26JWPJ:36W0OB37HXY27WGKC1BW9RLTYCKHZD,0,regular_61,regular_61,regular,NA,NA,61,Fwd,R,0.638,R,True,G,False
A149ROBL26JWPJ:36W0OB37HXY27WGKC1BW9RLTYCKHZD,0,regular_46,regular_46,regular,NA,NA,46,Fwd,G,0.741,G,False,G,False
A149ROBL26JWPJ:36W0OB37HXY27WGKC1BW9RLTYCKHZD,0,regular_90,regular_90,regular,NA,NA,90,None,R,1.078,G,False,R,False
A149ROBL26JWPJ:36W0OB37HXY27WGKC1BW9RLTYCKHZD,0,regular_17,regular_17,regular,NA,NA,17,Fwd,G,0.416,G,True,R,False
A149ROBL26JWPJ:36W0OB37HXY27WGKC1BW9RLTYCKHZD,0,regular_32,regular_32,regular,NA,NA,32,Fwd,G,0.535,R,True,R,False
A149ROBL26JWPJ:36W0OB37HXY27WGKC1BW9RLTYCKHZD,0,regular_84,regular_84,regular,NA,NA,84,None,G,1.471,G,True,R,False
A149ROBL26JWPJ:36W0OB37HXY27WGKC1BW9RLTYCKHZD,0,regular_27,regular_27,regular,NA,NA,27,None,G,0.528,G,False,G,False
A149ROBL26JWPJ:36W0OB37HXY27WGKC1BW9RLTYCKHZD,0,regular_4,regular_4,regular,NA,NA,4,Fwd,R,0.3,R,True,G,False
A149ROBL26JWPJ:36W0OB37HXY27WGKC1BW9RLTYCKHZD,0,regular_86,regular_86,regular,NA,NA,86,Fwd,G,0.405,G,False,G,False
A149ROBL26JWPJ:36W0OB37HXY27WGKC1BW9RLTYCKHZD,0,regular_88,regular_88,regular,NA,NA,88,Fwd,R,0.467,G,False,R,False
A149ROBL26JWPJ:36W0OB37HXY27WGKC1BW9RLTYCKHZD,0,porous_2_b,porous_2,contained,porous,b,2,Rev,G,0.677,G,False,G,False
A149ROBL26JWPJ:36W0OB37HXY27WGKC1BW9RLTYCKHZD,0,complex_2_b,complex_2,contained,complex,b,2,Rev,G,0.7,G,False,G,False
A149ROBL26JWPJ:36W0OB37HXY27WGKC1BW9RLTYCKHZD,0,regular_29,regular_29,regular,NA,NA,29,Fwd,R,0.44,R,False,R,False
A149ROBL26JWPJ:36W0OB37HXY27WGKC1BW9RLTYCKHZD,0,regular_87,regular_87,regular,NA,NA,87,None,G,0.501,G,False,G,False
A149ROBL26JWPJ:36W0OB37HXY27WGKC1BW9RLTYCKHZD,0,regular_26,regular_26,regular,NA,NA,26,Fwd,R,0.56,R,False,R,False
A149ROBL26JWPJ:36W0OB37HXY27WGKC1BW9RLTYCKHZD,0,regular_16,regular_16,regular,NA,NA,16,Fwd,G,0.349,G,False,G,False
A149ROBL26JWPJ:36W0OB37HXY27WGKC1BW9RLTYCKHZD,0,regular_58,regular_58,regular,NA,NA,58,Fwd,R,0.818,G,False,R,False
A149ROBL26JWPJ:36W0OB37HXY27WGKC1BW9RLTYCKHZD,0,regular_1,regular_1,regular,NA,NA,1,Fwd,G,0.424,G,True,R,False
A149ROBL26JWPJ:36W0OB37HXY27WGKC1BW9RLTYCKHZD,0,regular_39,regular_39,regular,NA,NA,39,None,G,0.502,G,False,G,False
A149ROBL26JWPJ:36W0OB37HXY27WGKC1BW9RLTYCKHZD,0,regular_77,regular_77,regular,NA,NA,77,Fwd,G,0.644,G,True,R,False
A149ROBL26JWPJ:36W0OB37HXY27WGKC1BW9RLTYCKHZD,0,regular_63,regular_63,regular,NA,NA,63,None,R,0.711,R,True,G,False
A149ROBL26JWPJ:36W0OB37HXY27WGKC1BW9RLTYCKHZD,0,porous_3_c,porous_3,contained,porous,c,3,None,R,0.774,G,True,G,False
A149ROBL26JWPJ:36W0OB37HXY27WGKC1BW9RLTYCKHZD,0,size_1_a,size_1,contained,size,a,1,None,G,0.681,G,True,R,False
A149ROBL26JWPJ:36W0OB37HXY27WGKC1BW9RLTYCKHZD,0,regular_37,regular_37,regular,NA,NA,37,Fwd,R,0.953,R,False,R,False
A149ROBL26JWPJ:36W0OB37HXY27WGKC1BW9RLTYCKHZD,0,regular_10,regular_10,regular,NA,NA,10,Fwd,R,0.7,R,False,R,False
A149ROBL26JWPJ:36W0OB37HXY27WGKC1BW9RLTYCKHZD,0,regular_43,regular_43,regular,NA,NA,43,Fwd,G,1.309,R,False,G,False
A149ROBL26JWPJ:36W0OB37HXY27WGKC1BW9RLTYCKHZD,0,porous_6_c,porous_6,contained,porous,c,6,Fwd,G,0.893,G,True,R,False
A149ROBL26JWPJ:36W0OB37HXY27WGKC1BW9RLTYCKHZD,0,regular_15,regular_15,regular,NA,NA,15,None,R,0.681,G,False,R,False
A149ROBL26JWPJ:36W0OB37HXY27WGKC1BW9RLTYCKHZD,0,regular_8,regular_8,regular,NA,NA,8,Fwd,R,0.416,R,False,R,False
A149ROBL26JWPJ:36W0OB37HXY27WGKC1BW9RLTYCKHZD,0,regular_78,regular_78,regular,NA,NA,78,None,R,0.565,G,False,R,False
A149ROBL26JWPJ:36W0OB37HXY27WGKC1BW9RLTYCKHZD,0,regular_20,regular_20,regular,NA,NA,20,Fwd,G,0.537,G,False,G,False
A149ROBL26JWPJ:36W0OB37HXY27WGKC1BW9RLTYCKHZD,0,regular_62,regular_62,regular,NA,NA,62,Fwd,G,0.804,G,True,R,False
A149ROBL26JWPJ:36W0OB37HXY27WGKC1BW9RLTYCKHZD,0,regular_34,regular_34,regular,NA,NA,34,Fwd,G,0.394,G,True,R,False
A149ROBL26JWPJ:36W0OB37HXY27WGKC1BW9RLTYCKHZD,0,regular_21,regular_21,regular,NA,NA,21,None,G,0.702,R,False,G,False
A149ROBL26JWPJ:36W0OB37HXY27WGKC1BW9RLTYCKHZD,0,regular_40,regular_40,regular,NA,NA,40,Fwd,R,0.584,R,False,R,False
A149ROBL26JWPJ:36W0OB37HXY27WGKC1BW9RLTYCKHZD,0,stopper_1_a,stopper_1,contained,stopper,a,1,Rev,G,0.748,G,True,R,False
A149ROBL26JWPJ:36W0OB37HXY27WGKC1BW9RLTYCKHZD,0,regular_31,regular_31,regular,NA,NA,31,Fwd,G,0.74,G,False,G,False
A149ROBL26JWPJ:36W0OB37HXY27WGKC1BW9RLTYCKHZD,0,size_6_c,size_6,contained,size,c,6,None,G,0.459,G,False,G,False
A149ROBL26JWPJ:36W0OB37HXY27WGKC1BW9RLTYCKHZD,0,regular_7,regular_7,regular,NA,NA,7,Fwd,G,0.745,G,True,R,False
A149ROBL26JWPJ:36W0OB37HXY27WGKC1BW9RLTYCKHZD,0,stopper_6_c,stopper_6,contained,stopper,c,6,Rev,G,0.363,G,True,R,False
A149ROBL26JWPJ:36W0OB37HXY27WGKC1BW9RLTYCKHZD,0,regular_12,regular_12,regular,NA,NA,12,None,G,0.417,G,False,G,False
A149ROBL26JWPJ:36W0OB37HXY27WGKC1BW9RLTYCKHZD,0,regular_72,regular_72,regular,NA,NA,72,None,R,0.318,R,True,G,False
A149ROBL26JWPJ:36W0OB37HXY27WGKC1BW9RLTYCKHZD,0,stopper_2_b,stopper_2,contained,stopper,b,2,None,G,0.349,G,True,R,False
A149ROBL26JWPJ:36W0OB37HXY27WGKC1BW9RLTYCKHZD,0,regular_11,regular_11,regular,NA,NA,11,Fwd,G,0.542,R,True,R,False
A149ROBL26JWPJ:36W0OB37HXY27WGKC1BW9RLTYCKHZD,0,regular_22,regular_22,regular,NA,NA,22,Fwd,R,0.642,G,True,G,False
A149ROBL26JWPJ:36W0OB37HXY27WGKC1BW9RLTYCKHZD,0,regular_30,regular_30,regular,NA,NA,30,None,G,0.411,G,True,R,False
A149ROBL26JWPJ:36W0OB37HXY27WGKC1BW9RLTYCKHZD,0,complex_3_c,complex_3,contained,complex,c,3,None,G,0.928,G,True,R,False
A149ROBL26JWPJ:36W0OB37HXY27WGKC1BW9RLTYCKHZD,0,porous_4_a,porous_4,contained,porous,a,4,Rev,G,0.357,G,False,G,False
A149ROBL26JWPJ:36W0OB37HXY27WGKC1BW9RLTYCKHZD,0,regular_79,regular_79,regular,NA,NA,79,Fwd,R,0.501,G,False,R,False
A149ROBL26JWPJ:36W0OB37HXY27WGKC1BW9RLTYCKHZD,0,regular_24,regular_24,regular,NA,NA,24,None,G,0.479,G,True,R,False
A149ROBL26JWPJ:36W0OB37HXY27WGKC1BW9RLTYCKHZD,0,size_3_c,size_3,contained,size,c,3,Rev,G,0.391,G,True,R,False
A149ROBL26JWPJ:36W0OB37HXY27WGKC1BW9RLTYCKHZD,0,regular_60,regular_60,regular,NA,NA,60,None,R,0.542,R,False,R,False
A149ROBL26JWPJ:36W0OB37HXY27WGKC1BW9RLTYCKHZD,0,complex_5_b,complex_5,contained,complex,b,5,None,G,0.42,G,True,R,False
A149ROBL26JWPJ:36W0OB37HXY27WGKC1BW9RLTYCKHZD,0,regular_45,regular_45,regular,NA,NA,45,None,R,0.627,G,True,G,False
A149ROBL26JWPJ:36W0OB37HXY27WGKC1BW9RLTYCKHZD,0,regular_53,regular_53,regular,NA,NA,53,Fwd,G,0.459,R,True,R,False
A149ROBL26JWPJ:36W0OB37HXY27WGKC1BW9RLTYCKHZD,0,regular_81,regular_81,regular,NA,NA,81,None,G,0.591,G,True,R,False
A149ROBL26JWPJ:36W0OB37HXY27WGKC1BW9RLTYCKHZD,0,regular_80,regular_80,regular,NA,NA,80,Fwd,R,0.641,R,False,R,False
A149ROBL26JWPJ:36W0OB37HXY27WGKC1BW9RLTYCKHZD,0,regular_47,regular_47,regular,NA,NA,47,Fwd,G,1.571,R,False,G,False
A149ROBL26JWPJ:36W0OB37HXY27WGKC1BW9RLTYCKHZD,0,complex_4_a,complex_4,contained,complex,a,4,Rev,G,0.409,G,True,R,False
A149ROBL26JWPJ:36W0OB37HXY27WGKC1BW9RLTYCKHZD,0,porous_1_a,porous_1,contained,porous,a,1,Fwd,G,0.326,G,False,G,False
A149ROBL26JWPJ:36W0OB37HXY27WGKC1BW9RLTYCKHZD,0,regular_75,regular_75,regular,NA,NA,75,None,R,0.479,R,True,G,False
A149ROBL26JWPJ:36W0OB37HXY27WGKC1BW9RLTYCKHZD,0,regular_50,regular_50,regular,NA,NA,50,Fwd,G,0.496,R,True,R,False
A149ROBL26JWPJ:36W0OB37HXY27WGKC1BW9RLTYCKHZD,0,regular_52,regular_52,regular,NA,NA,52,Fwd,R,0.957,R,False,R,False
A149ROBL26JWPJ:36W0OB37HXY27WGKC1BW9RLTYCKHZD,0,regular_44,regular_44,regular,NA,NA,44,Fwd,R,0.289,G,False,R,False
A149ROBL26JWPJ:36W0OB37HXY27WGKC1BW9RLTYCKHZD,0,regular_23,regular_23,regular,NA,NA,23,Fwd,R,0.544,R,False,R,False
A149ROBL26JWPJ:36W0OB37HXY27WGKC1BW9RLTYCKHZD,0,regular_48,regular_48,regular,NA,NA,48,None,G,0.545,R,False,G,False
A149ROBL26JWPJ:36W0OB37HXY27WGKC1BW9RLTYCKHZD,0,regular_41,regular_41,regular,NA,NA,41,Fwd,R,0.353,R,False,R,False
A149ROBL26JWPJ:36W0OB37HXY27WGKC1BW9RLTYCKHZD,0,regular_89,regular_89,regular,NA,NA,89,Fwd,R,0.351,R,True,G,False
A149ROBL26JWPJ:36W0OB37HXY27WGKC1BW9RLTYCKHZD,0,regular_66,regular_66,regular,NA,NA,66,None,R,0.558,R,False,R,False
A149ROBL26JWPJ:36W0OB37HXY27WGKC1BW9RLTYCKHZD,0,regular_59,regular_59,regular,NA,NA,59,Fwd,R,0.386,R,False,R,False
A149ROBL26JWPJ:36W0OB37HXY27WGKC1BW9RLTYCKHZD,0,regular_28,regular_28,regular,NA,NA,28,Fwd,R,0.435,R,False,R,False
A149ROBL26JWPJ:36W0OB37HXY27WGKC1BW9RLTYCKHZD,0,stopper_5_b,stopper_5,contained,stopper,b,5,Fwd,G,0.321,G,False,G,False
A149ROBL26JWPJ:36W0OB37HXY27WGKC1BW9RLTYCKHZD,0,regular_18,regular_18,regular,NA,NA,18,None,G,0.261,G,True,R,False
A149ROBL26JWPJ:36W0OB37HXY27WGKC1BW9RLTYCKHZD,0,regular_25,regular_25,regular,NA,NA,25,Fwd,G,0.892,R,False,G,False
A149ROBL26JWPJ:36W0OB37HXY27WGKC1BW9RLTYCKHZD,0,regular_85,regular_85,regular,NA,NA,85,Fwd,G,0.344,G,False,G,True
A149ROBL26JWPJ:36W0OB37HXY27WGKC1BW9RLTYCKHZD,0,regular_76,regular_76,regular,NA,NA,76,Fwd,R,0.387,R,True,G,False
A149ROBL26JWPJ:36W0OB37HXY27WGKC1BW9RLTYCKHZD,0,regular_92,regular_92,regular,NA,NA,92,Fwd,R,0.491,R,False,R,False
A149ROBL26JWPJ:36W0OB37HXY27WGKC1BW9RLTYCKHZD,0,regular_82,regular_82,regular,NA,NA,82,Fwd,R,0.768,R,False,R,False
A149ROBL26JWPJ:36W0OB37HXY27WGKC1BW9RLTYCKHZD,0,regular_74,regular_74,regular,NA,NA,74,Fwd,R,0.49,G,False,R,False
A149ROBL26JWPJ:36W0OB37HXY27WGKC1BW9RLTYCKHZD,0,regular_51,regular_51,regular,NA,NA,51,None,G,1.386,G,False,G,False
A149ROBL26JWPJ:36W0OB37HXY27WGKC1BW9RLTYCKHZD,0,regular_73,regular_73,regular,NA,NA,73,Fwd,G,0.446,G,True,R,False
A149ROBL26JWPJ:36W0OB37HXY27WGKC1BW9RLTYCKHZD,0,stopper_4_a,stopper_4,contained,stopper,a,4,None,G,0.318,G,False,G,False
A149ROBL26JWPJ:36W0OB37HXY27WGKC1BW9RLTYCKHZD,0,regular_67,regular_67,regular,NA,NA,67,Fwd,G,1.037,G,False,G,False
A149ROBL26JWPJ:36W0OB37HXY27WGKC1BW9RLTYCKHZD,0,size_2_b,size_2,contained,size,b,2,Fwd,G,0.665,G,True,R,False
A149ROBL26JWPJ:36W0OB37HXY27WGKC1BW9RLTYCKHZD,0,regular_91,regular_91,regular,NA,NA,91,Fwd,G,0.487,R,False,G,False
A149ROBL26JWPJ:36W0OB37HXY27WGKC1BW9RLTYCKHZD,0,complex_6_c,complex_6,contained,complex,c,6,Fwd,G,0.79,G,True,R,False
A149ROBL26JWPJ:36W0OB37HXY27WGKC1BW9RLTYCKHZD,0,regular_6,regular_6,regular,NA,NA,6,None,R,0.327,G,False,R,False
A149ROBL26JWPJ:36W0OB37HXY27WGKC1BW9RLTYCKHZD,0,regular_54,regular_54,regular,NA,NA,54,None,G,0.602,R,True,R,False
A149ROBL26JWPJ:36W0OB37HXY27WGKC1BW9RLTYCKHZD,0,regular_57,regular_57,regular,NA,NA,57,None,G,0.503,G,True,R,False
A149ROBL26JWPJ:36W0OB37HXY27WGKC1BW9RLTYCKHZD,0,regular_2,regular_2,regular,NA,NA,2,Fwd,R,0.247,G,False,R,False
A149ROBL26JWPJ:36W0OB37HXY27WGKC1BW9RLTYCKHZD,0,regular_95,regular_95,regular,NA,NA,95,Fwd,G,0.435,G,False,G,False
A149ROBL26JWPJ:36W0OB37HXY27WGKC1BW9RLTYCKHZD,0,regular_94,regular_94,regular,NA,NA,94,Fwd,G,1.141,G,False,G,False
A149ROBL26JWPJ:36W0OB37HXY27WGKC1BW9RLTYCKHZD,0,regular_65,regular_65,regular,NA,NA,65,Fwd,G,1.093,G,False,G,False
A149ROBL26JWPJ:36W0OB37HXY27WGKC1BW9RLTYCKHZD,0,regular_13,regular_13,regular,NA,NA,13,Fwd,G,0.654,G,False,G,False
A149ROBL26JWPJ:36W0OB37HXY27WGKC1BW9RLTYCKHZD,0,regular_64,regular_64,regular,NA,NA,64,Fwd,G,0.349,G,False,G,False
A149ROBL26JWPJ:36W0OB37HXY27WGKC1BW9RLTYCKHZD,0,regular_35,regular_35,regular,NA,NA,35,Fwd,G,0.844,G,True,R,False
A149ROBL26JWPJ:36W0OB37HXY27WGKC1BW9RLTYCKHZD,0,regular_5,regular_5,regular,NA,NA,5,Fwd,R,1.232,R,True,G,False
A149ROBL26JWPJ:36W0OB37HXY27WGKC1BW9RLTYCKHZD,0,regular_14,regular_14,regular,NA,NA,14,Fwd,R,1.179,G,False,R,False
A149ROBL26JWPJ:36W0OB37HXY27WGKC1BW9RLTYCKHZD,0,regular_33,regular_33,regular,NA,NA,33,None,G,0.83,R,False,G,False
A149ROBL26JWPJ:36W0OB37HXY27WGKC1BW9RLTYCKHZD,0,regular_19,regular_19,regular,NA,NA,19,Fwd,R,0.705,G,False,R,False
A149ROBL26JWPJ:36W0OB37HXY27WGKC1BW9RLTYCKHZD,0,regular_38,regular_38,regular,NA,NA,38,Fwd,G,0.574,G,True,R,False
A149ROBL26JWPJ:36W0OB37HXY27WGKC1BW9RLTYCKHZD,0,regular_49,regular_49,regular,NA,NA,49,Fwd,R,0.611,R,False,R,False
A149ROBL26JWPJ:36W0OB37HXY27WGKC1BW9RLTYCKHZD,0,regular_3,regular_3,regular,NA,NA,3,None,R,0.427,R,False,R,False
A149ROBL26JWPJ:36W0OB37HXY27WGKC1BW9RLTYCKHZD,0,size_4_a,size_4,contained,size,a,4,Fwd,G,0.664,G,True,R,False
A149ROBL26JWPJ:36W0OB37HXY27WGKC1BW9RLTYCKHZD,0,regular_0,regular_0,regular,NA,NA,0,None,G,0.669,R,True,R,False
A149ROBL26JWPJ:36W0OB37HXY27WGKC1BW9RLTYCKHZD,0,porous_5_b,porous_5,contained,porous,b,5,None,G,0.812,G,True,R,False
A149ROBL26JWPJ:36W0OB37HXY27WGKC1BW9RLTYCKHZD,0,stopper_3_c,stopper_3,contained,stopper,c,3,Fwd,G,0.449,G,True,R,False
A149ROBL26JWPJ:36W0OB37HXY27WGKC1BW9RLTYCKHZD,0,regular_83,regular_83,regular,NA,NA,83,Fwd,R,0.876,G,True,G,False
A149ROBL26JWPJ:36W0OB37HXY27WGKC1BW9RLTYCKHZD,0,regular_70,regular_70,regular,NA,NA,70,Fwd,G,0.711,G,True,R,False
A15TFO5B95QVQZ:3VJ40NV2QJ7GD1T8AMH47CHDP49TOY,3,regular_15,regular_15,regular,NA,NA,15,None,G,0.211,G,False,G,False
A15TFO5B95QVQZ:3VJ40NV2QJ7GD1T8AMH47CHDP49TOY,3,regular_42,regular_42,regular,NA,NA,42,None,G,0.183,G,True,R,False
A15TFO5B95QVQZ:3VJ40NV2QJ7GD1T8AMH47CHDP49TOY,3,size_6_c,size_6,contained,size,c,6,Fwd,G,0.215,G,False,G,False
A15TFO5B95QVQZ:3VJ40NV2QJ7GD1T8AMH47CHDP49TOY,3,regular_77,regular_77,regular,NA,NA,77,Fwd,NA,-1,G,True,NA,False
A15TFO5B95QVQZ:3VJ40NV2QJ7GD1T8AMH47CHDP49TOY,3,stopper_3_c,stopper_3,contained,stopper,c,3,Rev,R,0.121,G,False,R,False
A15TFO5B95QVQZ:3VJ40NV2QJ7GD1T8AMH47CHDP49TOY,3,regular_13,regular_13,regular,NA,NA,13,Fwd,R,0.055,G,False,R,False
A15TFO5B95QVQZ:3VJ40NV2QJ7GD1T8AMH47CHDP49TOY,3,regular_93,regular_93,regular,NA,NA,93,None,G,0.996,G,False,G,False
A15TFO5B95QVQZ:3VJ40NV2QJ7GD1T8AMH47CHDP49TOY,3,porous_4_a,porous_4,contained,porous,a,4,None,G,1.873,G,False,G,False
A15TFO5B95QVQZ:3VJ40NV2QJ7GD1T8AMH47CHDP49TOY,3,regular_63,regular_63,regular,NA,NA,63,None,G,1.363,R,True,R,False
A15TFO5B95QVQZ:3VJ40NV2QJ7GD1T8AMH47CHDP49TOY,3,stopper_6_c,stopper_6,contained,stopper,c,6,None,NA,-1,G,True,NA,False
A15TFO5B95QVQZ:3VJ40NV2QJ7GD1T8AMH47CHDP49TOY,3,regular_83,regular_83,regular,NA,NA,83,Fwd,G,1.917,G,True,R,False
A15TFO5B95QVQZ:3VJ40NV2QJ7GD1T8AMH47CHDP49TOY,3,size_4_a,size_4,contained,size,a,4,Rev,R,0.054,G,True,G,False
A15TFO5B95QVQZ:3VJ40NV2QJ7GD1T8AMH47CHDP49TOY,3,regular_87,regular_87,regular,NA,NA,87,None,NA,-1,G,False,NA,False
A15TFO5B95QVQZ:3VJ40NV2QJ7GD1T8AMH47CHDP49TOY,3,regular_34,regular_34,regular,NA,NA,34,Fwd,R,0.004,G,True,G,False
A15TFO5B95QVQZ:3VJ40NV2QJ7GD1T8AMH47CHDP49TOY,3,regular_57,regular_57,regular,NA,NA,57,None,R,0.846,G,False,R,False
A15TFO5B95QVQZ:3VJ40NV2QJ7GD1T8AMH47CHDP49TOY,3,regular_94,regular_94,regular,NA,NA,94,Fwd,R,1.248,G,False,R,False
A15TFO5B95QVQZ:3VJ40NV2QJ7GD1T8AMH47CHDP49TOY,3,regular_25,regular_25,regular,NA,NA,25,Fwd,R,0.012,R,True,G,False
A15TFO5B95QVQZ:3VJ40NV2QJ7GD1T8AMH47CHDP49TOY,3,regular_59,regular_59,regular,NA,NA,59,Fwd,NA,-1,R,True,NA,False
A15TFO5B95QVQZ:3VJ40NV2QJ7GD1T8AMH47CHDP49TOY,3,regular_70,regular_70,regular,NA,NA,70,Fwd,R,2.394,G,False,R,False
A15TFO5B95QVQZ:3VJ40NV2QJ7GD1T8AMH47CHDP49TOY,3,regular_11,regular_11,regular,NA,NA,11,Fwd,R,1.895,R,False,R,False
A15TFO5B95QVQZ:3VJ40NV2QJ7GD1T8AMH47CHDP49TOY,3,regular_1,regular_1,regular,NA,NA,1,Fwd,G,0.721,G,True,R,False
A15TFO5B95QVQZ:3VJ40NV2QJ7GD1T8AMH47CHDP49TOY,3,regular_33,regular_33,regular,NA,NA,33,None,G,2.367,R,False,G,False
A15TFO5B95QVQZ:3VJ40NV2QJ7GD1T8AMH47CHDP49TOY,3,regular_22,regular_22,regular,NA,NA,22,Fwd,NA,-1,G,False,NA,False
A15TFO5B95QVQZ:3VJ40NV2QJ7GD1T8AMH47CHDP49TOY,3,regular_24,regular_24,regular,NA,NA,24,None,R,0.334,G,False,R,False
A15TFO5B95QVQZ:3VJ40NV2QJ7GD1T8AMH47CHDP49TOY,3,regular_36,regular_36,regular,NA,NA,36,None,G,1.268,G,True,R,False
A15TFO5B95QVQZ:3VJ40NV2QJ7GD1T8AMH47CHDP49TOY,3,regular_58,regular_58,regular,NA,NA,58,Fwd,G,0.012,G,True,R,False
A15TFO5B95QVQZ:3VJ40NV2QJ7GD1T8AMH47CHDP49TOY,3,regular_80,regular_80,regular,NA,NA,80,Fwd,G,2.041,R,False,G,False
A15TFO5B95QVQZ:3VJ40NV2QJ7GD1T8AMH47CHDP49TOY,3,regular_52,regular_52,regular,NA,NA,52,Fwd,R,2.324,R,False,R,False
A15TFO5B95QVQZ:3VJ40NV2QJ7GD1T8AMH47CHDP49TOY,3,complex_4_a,complex_4,contained,complex,a,4,None,G,0.689,G,False,G,False
A15TFO5B95QVQZ:3VJ40NV2QJ7GD1T8AMH47CHDP49TOY,3,regular_39,regular_39,regular,NA,NA,39,None,G,1.994,G,False,G,False
A15TFO5B95QVQZ:3VJ40NV2QJ7GD1T8AMH47CHDP49TOY,3,regular_90,regular_90,regular,NA,NA,90,None,G,1.41,G,False,G,False
A15TFO5B95QVQZ:3VJ40NV2QJ7GD1T8AMH47CHDP49TOY,3,regular_49,regular_49,regular,NA,NA,49,Fwd,G,0.157,R,True,R,False
A15TFO5B95QVQZ:3VJ40NV2QJ7GD1T8AMH47CHDP49TOY,3,stopper_4_a,stopper_4,contained,stopper,a,4,Fwd,G,0.043,G,False,G,False
A15TFO5B95QVQZ:3VJ40NV2QJ7GD1T8AMH47CHDP49TOY,3,regular_62,regular_62,regular,NA,NA,62,Fwd,G,0.084,G,True,R,False
A15TFO5B95QVQZ:3VJ40NV2QJ7GD1T8AMH47CHDP49TOY,3,regular_68,regular_68,regular,NA,NA,68,Fwd,G,0.143,R,True,R,False
A15TFO5B95QVQZ:3VJ40NV2QJ7GD1T8AMH47CHDP49TOY,3,regular_29,regular_29,regular,NA,NA,29,Fwd,R,0.191,R,False,R,False
A15TFO5B95QVQZ:3VJ40NV2QJ7GD1T8AMH47CHDP49TOY,3,porous_5_b,porous_5,contained,porous,b,5,Fwd,G,1.102,G,False,G,False
A15TFO5B95QVQZ:3VJ40NV2QJ7GD1T8AMH47CHDP49TOY,3,regular_9,regular_9,regular,NA,NA,9,None,R,0.213,R,False,R,False
A15TFO5B95QVQZ:3VJ40NV2QJ7GD1T8AMH47CHDP49TOY,3,regular_16,regular_16,regular,NA,NA,16,Fwd,G,0.918,G,False,G,False
A15TFO5B95QVQZ:3VJ40NV2QJ7GD1T8AMH47CHDP49TOY,3,complex_2_b,complex_2,contained,complex,b,2,None,G,1.047,G,True,R,False
A15TFO5B95QVQZ:3VJ40NV2QJ7GD1T8AMH47CHDP49TOY,3,regular_19,regular_19,regular,NA,NA,19,Fwd,G,0.033,G,True,R,False
A15TFO5B95QVQZ:3VJ40NV2QJ7GD1T8AMH47CHDP49TOY,3,regular_20,regular_20,regular,NA,NA,20,Fwd,G,0.187,G,False,G,False
A15TFO5B95QVQZ:3VJ40NV2QJ7GD1T8AMH47CHDP49TOY,3,stopper_1_a,stopper_1,contained,stopper,a,1,None,R,0.331,G,False,R,False
A15TFO5B95QVQZ:3VJ40NV2QJ7GD1T8AMH47CHDP49TOY,3,regular_75,regular_75,regular,NA,NA,75,None,R,2.013,R,True,G,False
A15TFO5B95QVQZ:3VJ40NV2QJ7GD1T8AMH47CHDP49TOY,3,regular_53,regular_53,regular,NA,NA,53,Fwd,R,0.103,R,False,R,False
A15TFO5B95QVQZ:3VJ40NV2QJ7GD1T8AMH47CHDP49TOY,3,regular_54,regular_54,regular,NA,NA,54,None,R,0.449,R,True,G,False
A15TFO5B95QVQZ:3VJ40NV2QJ7GD1T8AMH47CHDP49TOY,3,complex_3_c,complex_3,contained,complex,c,3,Fwd,G,0.877,G,True,R,False
A15TFO5B95QVQZ:3VJ40NV2QJ7GD1T8AMH47CHDP49TOY,3,regular_64,regular_64,regular,NA,NA,64,Fwd,G,0.317,G,True,R,False
A15TFO5B95QVQZ:3VJ40NV2QJ7GD1T8AMH47CHDP49TOY,3,regular_79,regular_79,regular,NA,NA,79,Fwd,G,0.813,G,True,R,False
A15TFO5B95QVQZ:3VJ40NV2QJ7GD1T8AMH47CHDP49TOY,3,regular_72,regular_72,regular,NA,NA,72,None,R,0.16,R,True,G,False
A15TFO5B95QVQZ:3VJ40NV2QJ7GD1T8AMH47CHDP49TOY,3,regular_31,regular_31,regular,NA,NA,31,Fwd,R,0,G,True,G,False
A15TFO5B95QVQZ:3VJ40NV2QJ7GD1T8AMH47CHDP49TOY,3,regular_91,regular_91,regular,NA,NA,91,Fwd,G,0.273,R,True,R,False
A15TFO5B95QVQZ:3VJ40NV2QJ7GD1T8AMH47CHDP49TOY,3,regular_30,regular_30,regular,NA,NA,30,None,G,1.019,G,True,R,False
A15TFO5B95QVQZ:3VJ40NV2QJ7GD1T8AMH47CHDP49TOY,3,regular_66,regular_66,regular,NA,NA,66,None,G,0.158,R,False,G,False
A15TFO5B95QVQZ:3VJ40NV2QJ7GD1T8AMH47CHDP49TOY,3,regular_65,regular_65,regular,NA,NA,65,Fwd,R,0.502,G,False,R,False
A15TFO5B95QVQZ:3VJ40NV2QJ7GD1T8AMH47CHDP49TOY,3,regular_10,regular_10,regular,NA,NA,10,Fwd,R,0.189,R,True,G,False
A15TFO5B95QVQZ:3VJ40NV2QJ7GD1T8AMH47CHDP49TOY,3,regular_74,regular_74,regular,NA,NA,74,Fwd,G,0.156,G,False,G,False
A15TFO5B95QVQZ:3VJ40NV2QJ7GD1T8AMH47CHDP49TOY,3,regular_32,regular_32,regular,NA,NA,32,Fwd,G,0.052,R,True,R,False
A15TFO5B95QVQZ:3VJ40NV2QJ7GD1T8AMH47CHDP49TOY,3,regular_81,regular_81,regular,NA,NA,81,None,G,1.258,G,False,G,False
A15TFO5B95QVQZ:3VJ40NV2QJ7GD1T8AMH47CHDP49TOY,3,regular_61,regular_61,regular,NA,NA,61,Fwd,R,0.923,R,True,G,False
A15TFO5B95QVQZ:3VJ40NV2QJ7GD1T8AMH47CHDP49TOY,3,regular_4,regular_4,regular,NA,NA,4,Fwd,R,0.2,R,False,R,False
A15TFO5B95QVQZ:3VJ40NV2QJ7GD1T8AMH47CHDP49TOY,3,porous_1_a,porous_1,contained,porous,a,1,Rev,G,0.797,G,False,G,False
A15TFO5B95QVQZ:3VJ40NV2QJ7GD1T8AMH47CHDP49TOY,3,regular_43,regular_43,regular,NA,NA,43,Fwd,R,0.248,R,False,R,False
A15TFO5B95QVQZ:3VJ40NV2QJ7GD1T8AMH47CHDP49TOY,3,regular_50,regular_50,regular,NA,NA,50,Fwd,G,0.363,R,False,G,False
A15TFO5B95QVQZ:3VJ40NV2QJ7GD1T8AMH47CHDP49TOY,3,regular_73,regular_73,regular,NA,NA,73,Fwd,G,0.101,G,True,R,False
A15TFO5B95QVQZ:3VJ40NV2QJ7GD1T8AMH47CHDP49TOY,3,regular_86,regular_86,regular,NA,NA,86,Fwd,G,1.039,G,False,G,False
A15TFO5B95QVQZ:3VJ40NV2QJ7GD1T8AMH47CHDP49TOY,3,regular_37,regular_37,regular,NA,NA,37,Fwd,R,0.074,R,False,R,False
A15TFO5B95QVQZ:3VJ40NV2QJ7GD1T8AMH47CHDP49TOY,3,regular_38,regular_38,regular,NA,NA,38,Fwd,R,0.154,G,True,G,False
A15TFO5B95QVQZ:3VJ40NV2QJ7GD1T8AMH47CHDP49TOY,3,regular_76,regular_76,regular,NA,NA,76,Fwd,G,0.365,R,False,G,False
A15TFO5B95QVQZ:3VJ40NV2QJ7GD1T8AMH47CHDP49TOY,3,regular_23,regular_23,regular,NA,NA,23,Fwd,R,1.097,R,False,R,False
A15TFO5B95QVQZ:3VJ40NV2QJ7GD1T8AMH47CHDP49TOY,3,porous_2_b,porous_2,contained,porous,b,2,None,G,0.827,G,True,R,False
A15TFO5B95QVQZ:3VJ40NV2QJ7GD1T8AMH47CHDP49TOY,3,regular_89,regular_89,regular,NA,NA,89,Fwd,R,0.12,R,True,G,False
A15TFO5B95QVQZ:3VJ40NV2QJ7GD1T8AMH47CHDP49TOY,3,regular_82,regular_82,regular,NA,NA,82,Fwd,G,0.557,R,True,R,False
A15TFO5B95QVQZ:3VJ40NV2QJ7GD1T8AMH47CHDP49TOY,3,regular_67,regular_67,regular,NA,NA,67,Fwd,G,0.092,G,True,R,False
A15TFO5B95QVQZ:3VJ40NV2QJ7GD1T8AMH47CHDP49TOY,3,regular_84,regular_84,regular,NA,NA,84,None,G,1.212,G,False,G,False
A15TFO5B95QVQZ:3VJ40NV2QJ7GD1T8AMH47CHDP49TOY,3,regular_41,regular_41,regular,NA,NA,41,Fwd,R,0.625,R,False,R,False
A15TFO5B95QVQZ:3VJ40NV2QJ7GD1T8AMH47CHDP49TOY,3,regular_78,regular_78,regular,NA,NA,78,None,R,0.763,G,True,G,False
A15TFO5B95QVQZ:3VJ40NV2QJ7GD1T8AMH47CHDP49TOY,3,regular_18,regular_18,regular,NA,NA,18,None,G,0.933,G,True,R,False
A15TFO5B95QVQZ:3VJ40NV2QJ7GD1T8AMH47CHDP49TOY,3,size_3_c,size_3,contained,size,c,3,None,R,0.211,G,False,R,False
A15TFO5B95QVQZ:3VJ40NV2QJ7GD1T8AMH47CHDP49TOY,3,regular_35,regular_35,regular,NA,NA,35,Fwd,G,0.919,G,True,R,False
A15TFO5B95QVQZ:3VJ40NV2QJ7GD1T8AMH47CHDP49TOY,3,regular_0,regular_0,regular,NA,NA,0,None,R,0.5,R,True,G,False
A15TFO5B95QVQZ:3VJ40NV2QJ7GD1T8AMH47CHDP49TOY,3,regular_6,regular_6,regular,NA,NA,6,None,R,0.494,G,False,R,False
A15TFO5B95QVQZ:3VJ40NV2QJ7GD1T8AMH47CHDP49TOY,3,regular_88,regular_88,regular,NA,NA,88,Fwd,R,0.085,G,True,G,False
A15TFO5B95QVQZ:3VJ40NV2QJ7GD1T8AMH47CHDP49TOY,3,regular_28,regular_28,regular,NA,NA,28,Fwd,R,0.09,R,False,R,False
A15TFO5B95QVQZ:3VJ40NV2QJ7GD1T8AMH47CHDP49TOY,3,regular_26,regular_26,regular,NA,NA,26,Fwd,R,0.793,R,False,R,False
A15TFO5B95QVQZ:3VJ40NV2QJ7GD1T8AMH47CHDP49TOY,3,size_2_b,size_2,contained,size,b,2,Rev,G,0.299,G,False,G,False
A15TFO5B95QVQZ:3VJ40NV2QJ7GD1T8AMH47CHDP49TOY,3,regular_69,regular_69,regular,NA,NA,69,None,G,0.397,G,True,R,False
A15TFO5B95QVQZ:3VJ40NV2QJ7GD1T8AMH47CHDP49TOY,3,regular_17,regular_17,regular,NA,NA,17,Fwd,G,0.185,G,True,R,False
A15TFO5B95QVQZ:3VJ40NV2QJ7GD1T8AMH47CHDP49TOY,3,regular_95,regular_95,regular,NA,NA,95,Fwd,G,0.862,G,True,R,False
A15TFO5B95QVQZ:3VJ40NV2QJ7GD1T8AMH47CHDP49TOY,3,size_1_a,size_1,contained,size,a,1,Fwd,G,0.138,G,True,R,False
A15TFO5B95QVQZ:3VJ40NV2QJ7GD1T8AMH47CHDP49TOY,3,porous_6_c,porous_6,contained,porous,c,6,Rev,G,0.384,G,False,G,False
A15TFO5B95QVQZ:3VJ40NV2QJ7GD1T8AMH47CHDP49TOY,3,stopper_2_b,stopper_2,contained,stopper,b,2,Fwd,G,0.105,G,False,G,False
A15TFO5B95QVQZ:3VJ40NV2QJ7GD1T8AMH47CHDP49TOY,3,porous_3_c,porous_3,contained,porous,c,3,Fwd,G,0.02,G,False,G,False
A15TFO5B95QVQZ:3VJ40NV2QJ7GD1T8AMH47CHDP49TOY,3,complex_6_c,complex_6,contained,complex,c,6,Rev,G,0.156,G,True,R,False
A15TFO5B95QVQZ:3VJ40NV2QJ7GD1T8AMH47CHDP49TOY,3,size_5_b,size_5,contained,size,b,5,None,R,0.603,G,False,R,False
A15TFO5B95QVQZ:3VJ40NV2QJ7GD1T8AMH47CHDP49TOY,3,regular_45,regular_45,regular,NA,NA,45,None,G,0.523,G,False,G,False
A15TFO5B95QVQZ:3VJ40NV2QJ7GD1T8AMH47CHDP49TOY,3,regular_5,regular_5,regular,NA,NA,5,Fwd,R,0.302,R,False,R,False
A15TFO5B95QVQZ:3VJ40NV2QJ7GD1T8AMH47CHDP49TOY,3,regular_85,regular_85,regular,NA,NA,85,Fwd,G,0.191,G,False,G,False
A15TFO5B95QVQZ:3VJ40NV2QJ7GD1T8AMH47CHDP49TOY,3,regular_27,regular_27,regular,NA,NA,27,None,R,0.35,G,False,R,False
A15TFO5B95QVQZ:3VJ40NV2QJ7GD1T8AMH47CHDP49TOY,3,regular_56,regular_56,regular,NA,NA,56,Fwd,R,0.092,R,True,G,False
A15TFO5B95QVQZ:3VJ40NV2QJ7GD1T8AMH47CHDP49TOY,3,regular_44,regular_44,regular,NA,NA,44,Fwd,R,0.11,G,True,G,False
A15TFO5B95QVQZ:3VJ40NV2QJ7GD1T8AMH47CHDP49TOY,3,regular_55,regular_55,regular,NA,NA,55,Fwd,G,0.072,G,True,R,False
A15TFO5B95QVQZ:3VJ40NV2QJ7GD1T8AMH47CHDP49TOY,3,regular_14,regular_14,regular,NA,NA,14,Fwd,G,0.468,G,False,G,False
A15TFO5B95QVQZ:3VJ40NV2QJ7GD1T8AMH47CHDP49TOY,3,regular_7,regular_7,regular,NA,NA,7,Fwd,R,0.339,G,False,R,False
A15TFO5B95QVQZ:3VJ40NV2QJ7GD1T8AMH47CHDP49TOY,3,regular_2,regular_2,regular,NA,NA,2,Fwd,G,0.913,G,False,G,False
A15TFO5B95QVQZ:3VJ40NV2QJ7GD1T8AMH47CHDP49TOY,3,regular_46,regular_46,regular,NA,NA,46,Fwd,G,0.887,G,True,R,False
A15TFO5B95QVQZ:3VJ40NV2QJ7GD1T8AMH47CHDP49TOY,3,complex_1_a,complex_1,contained,complex,a,1,Rev,R,0.111,G,True,G,False
A15TFO5B95QVQZ:3VJ40NV2QJ7GD1T8AMH47CHDP49TOY,3,regular_71,regular_71,regular,NA,NA,71,Fwd,R,0.514,R,False,R,False
A15TFO5B95QVQZ:3VJ40NV2QJ7GD1T8AMH47CHDP49TOY,3,regular_21,regular_21,regular,NA,NA,21,None,G,1.012,R,True,R,False
A15TFO5B95QVQZ:3VJ40NV2QJ7GD1T8AMH47CHDP49TOY,3,regular_8,regular_8,regular,NA,NA,8,Fwd,R,0.693,R,False,R,False
A15TFO5B95QVQZ:3VJ40NV2QJ7GD1T8AMH47CHDP49TOY,3,regular_47,regular_47,regular,NA,NA,47,Fwd,G,1.021,R,True,R,False
A15TFO5B95QVQZ:3VJ40NV2QJ7GD1T8AMH47CHDP49TOY,3,regular_92,regular_92,regular,NA,NA,92,Fwd,R,0.406,R,False,R,False
A15TFO5B95QVQZ:3VJ40NV2QJ7GD1T8AMH47CHDP49TOY,3,regular_40,regular_40,regular,NA,NA,40,Fwd,R,0.188,R,False,R,False
A15TFO5B95QVQZ:3VJ40NV2QJ7GD1T8AMH47CHDP49TOY,3,regular_12,regular_12,regular,NA,NA,12,None,G,0.467,G,False,G,False
A15TFO5B95QVQZ:3VJ40NV2QJ7GD1T8AMH47CHDP49TOY,3,regular_51,regular_51,regular,NA,NA,51,None,G,0.503,G,True,R,False
A15TFO5B95QVQZ:3VJ40NV2QJ7GD1T8AMH47CHDP49TOY,3,complex_5_b,complex_5,contained,complex,b,5,Fwd,G,0.837,G,False,G,False
A15TFO5B95QVQZ:3VJ40NV2QJ7GD1T8AMH47CHDP49TOY,3,regular_60,regular_60,regular,NA,NA,60,None,R,0.47,R,False,R,False
A15TFO5B95QVQZ:3VJ40NV2QJ7GD1T8AMH47CHDP49TOY,3,regular_48,regular_48,regular,NA,NA,48,None,R,0.338,R,True,G,False
A15TFO5B95QVQZ:3VJ40NV2QJ7GD1T8AMH47CHDP49TOY,3,regular_3,regular_3,regular,NA,NA,3,None,R,0.978,R,False,R,False
A15TFO5B95QVQZ:3VJ40NV2QJ7GD1T8AMH47CHDP49TOY,3,stopper_5_b,stopper_5,contained,stopper,b,5,Rev,G,0.44,G,True,R,False
A15V8K8M4TXT9Y:3YGXWBAF711VNRHF5G7544B4J6R4CR,3,regular_82,regular_82,regular,NA,NA,82,Fwd,G,1.053,R,False,G,False
A15V8K8M4TXT9Y:3YGXWBAF711VNRHF5G7544B4J6R4CR,3,regular_12,regular_12,regular,NA,NA,12,None,G,1.194,G,True,R,True
A15V8K8M4TXT9Y:3YGXWBAF711VNRHF5G7544B4J6R4CR,3,regular_37,regular_37,regular,NA,NA,37,Fwd,R,1.348,R,True,G,False
A15V8K8M4TXT9Y:3YGXWBAF711VNRHF5G7544B4J6R4CR,3,regular_63,regular_63,regular,NA,NA,63,None,G,1.038,R,True,R,False
A15V8K8M4TXT9Y:3YGXWBAF711VNRHF5G7544B4J6R4CR,3,regular_42,regular_42,regular,NA,NA,42,None,R,0.882,G,True,G,False
A15V8K8M4TXT9Y:3YGXWBAF711VNRHF5G7544B4J6R4CR,3,regular_55,regular_55,regular,NA,NA,55,Fwd,G,1.536,G,True,R,False
A15V8K8M4TXT9Y:3YGXWBAF711VNRHF5G7544B4J6R4CR,3,regular_39,regular_39,regular,NA,NA,39,None,R,0.709,G,False,R,False
A15V8K8M4TXT9Y:3YGXWBAF711VNRHF5G7544B4J6R4CR,3,regular_10,regular_10,regular,NA,NA,10,Fwd,G,1.12,R,False,G,False
A15V8K8M4TXT9Y:3YGXWBAF711VNRHF5G7544B4J6R4CR,3,regular_11,regular_11,regular,NA,NA,11,Fwd,R,0.863,R,True,G,False
A15V8K8M4TXT9Y:3YGXWBAF711VNRHF5G7544B4J6R4CR,3,regular_81,regular_81,regular,NA,NA,81,None,R,2.377,G,True,G,True
A15V8K8M4TXT9Y:3YGXWBAF711VNRHF5G7544B4J6R4CR,3,regular_38,regular_38,regular,NA,NA,38,Fwd,G,1.666,G,True,R,False
A15V8K8M4TXT9Y:3YGXWBAF711VNRHF5G7544B4J6R4CR,3,complex_1_a,complex_1,contained,complex,a,1,Rev,G,0.904,G,True,R,False
A15V8K8M4TXT9Y:3YGXWBAF711VNRHF5G7544B4J6R4CR,3,regular_54,regular_54,regular,NA,NA,54,None,G,1.366,R,False,G,False
A15V8K8M4TXT9Y:3YGXWBAF711VNRHF5G7544B4J6R4CR,3,regular_26,regular_26,regular,NA,NA,26,Fwd,R,0.857,R,False,R,False
A15V8K8M4TXT9Y:3YGXWBAF711VNRHF5G7544B4J6R4CR,3,regular_52,regular_52,regular,NA,NA,52,Fwd,R,1.52,R,False,R,False
A15V8K8M4TXT9Y:3YGXWBAF711VNRHF5G7544B4J6R4CR,3,regular_59,regular_59,regular,NA,NA,59,Fwd,G,0.554,R,True,R,False
A15V8K8M4TXT9Y:3YGXWBAF711VNRHF5G7544B4J6R4CR,3,regular_86,regular_86,regular,NA,NA,86,Fwd,G,0.782,G,False,G,False
A15V8K8M4TXT9Y:3YGXWBAF711VNRHF5G7544B4J6R4CR,3,regular_43,regular_43,regular,NA,NA,43,Fwd,R,0.769,R,True,G,False
A15V8K8M4TXT9Y:3YGXWBAF711VNRHF5G7544B4J6R4CR,3,regular_33,regular_33,regular,NA,NA,33,None,G,0.456,R,False,G,True
A15V8K8M4TXT9Y:3YGXWBAF711VNRHF5G7544B4J6R4CR,3,regular_95,regular_95,regular,NA,NA,95,Fwd,R,1.441,G,False,R,False
A15V8K8M4TXT9Y:3YGXWBAF711VNRHF5G7544B4J6R4CR,3,regular_88,regular_88,regular,NA,NA,88,Fwd,R,0.711,G,True,G,False
A15V8K8M4TXT9Y:3YGXWBAF711VNRHF5G7544B4J6R4CR,3,size_1_a,size_1,contained,size,a,1,Fwd,G,0.601,G,True,R,False
